[{"rt":6586,"responses":"{\"Q0\":\"A11MCPY8W4U6FL\"}","trial_type":"survey-text","trial_index":0,"time_elapsed":6587,"internal_node_id":"0.0-0.0-0.0","participant_id":"A11MCPY8W4U6FL"},{"rt":5287,"stimulus":"stimuli/ins/Slide1.JPG","button_pressed":"0","Name":"instructions","trial_type":"image-button-response","trial_index":1,"time_elapsed":11876,"internal_node_id":"0.0-1.0","participant_id":"A11MCPY8W4U6FL"},{"rt":2744,"stimulus":"stimuli/ins/Slide2.JPG","button_pressed":"0","Name":"instructions","trial_type":"image-button-response","trial_index":2,"time_elapsed":14622,"internal_node_id":"0.0-2.0","participant_id":"A11MCPY8W4U6FL"},{"rt":4029,"stimulus":"stimuli/ins/Slide3.JPG","button_pressed":"0","Name":"instructions","trial_type":"image-button-response","trial_index":3,"time_elapsed":18651,"internal_node_id":"0.0-3.0","participant_id":"A11MCPY8W4U6FL"},{"rt":3598,"stimulus":"stimuli/ins/Slide4.JPG","button_pressed":"0","Name":"instructions","trial_type":"image-button-response","trial_index":4,"time_elapsed":22249,"internal_node_id":"0.0-4.0","participant_id":"A11MCPY8W4U6FL"},{"rt":3659,"stimulus":"stimuli/ins/Slide5.JPG","button_pressed":"0","Name":"instructions","trial_type":"image-button-response","trial_index":5,"time_elapsed":25909,"internal_node_id":"0.0-5.0","participant_id":"A11MCPY8W4U6FL"},{"rt":2337,"stimulus":"stimuli/ins/Slide6.JPG","button_pressed":"0","Name":"instructions","trial_type":"image-button-response","trial_index":6,"time_elapsed":28246,"internal_node_id":"0.0-6.0","participant_id":"A11MCPY8W4U6FL"},{"rt":1293,"stimulus":"stimuli/ins/Slide7.JPG","button_pressed":"0","Name":"instructions","trial_type":"image-button-response","trial_index":7,"time_elapsed":29539,"internal_node_id":"0.0-7.0","participant_id":"A11MCPY8W4U6FL"},{"rt":5943,"responses":"{\"Q0\":\"but\"}","trial_type":"survey-text","trial_index":8,"time_elapsed":35482,"internal_node_id":"0.0-8.0-0.0","participant_id":"A11MCPY8W4U6FL"},{"rt":null,"stimulus":"<p style=\"font-size: 48px;\">+</p>","key_press":null,"Name":"fixation","trial_type":"html-keyboard-response","trial_index":9,"time_elapsed":35986,"internal_node_id":"0.0-9.0","participant_id":"A11MCPY8W4U6FL"},{"rt":null,"stimulus":"stimuli/59.jpg","button_pressed":null,"name":"noRating","trial_type":"image-button-response","trial_index":10,"time_elapsed":40990,"internal_node_id":"0.0-10.0","participant_id":"A11MCPY8W4U6FL"},{"rt":1630,"stimulus":"stimuli/59.jpg","button_pressed":"0","name":"valence","trial_type":"image-button-response","trial_index":11,"time_elapsed":42620,"internal_node_id":"0.0-11.0","participant_id":"A11MCPY8W4U6FL"},{"rt":6113,"response":"3","name":"rating","trial_type":"image-slider-response","trial_index":12,"time_elapsed":48734,"internal_node_id":"0.0-12.0","participant_id":"A11MCPY8W4U6FL"},{"rt":6675,"stimulus":"stimuli/59.jpg","button_pressed":"2","name":"emotionType","trial_type":"image-button-response","trial_index":13,"time_elapsed":55410,"internal_node_id":"0.0-13.0","participant_id":"A11MCPY8W4U6FL"},{"rt":null,"stimulus":"<p style=\"font-size: 48px;\">+</p>","key_press":null,"Name":"fixation","trial_type":"html-keyboard-response","trial_index":14,"time_elapsed":56916,"internal_node_id":"0.0-14.0","participant_id":"A11MCPY8W4U6FL"},{"rt":null,"stimulus":"stimuli/16.jpg","button_pressed":null,"name":"noRating","trial_type":"image-button-response","trial_index":15,"time_elapsed":61918,"internal_node_id":"0.0-15.0","participant_id":"A11MCPY8W4U6FL"},{"rt":1513,"stimulus":"stimuli/16.jpg","button_pressed":"0","name":"valence","trial_type":"image-button-response","trial_index":16,"time_elapsed":63433,"internal_node_id":"0.0-16.0","participant_id":"A11MCPY8W4U6FL"},{"rt":3204,"response":"33","name":"rating","trial_type":"image-slider-response","trial_index":17,"time_elapsed":66637,"internal_node_id":"0.0-17.0","participant_id":"A11MCPY8W4U6FL"},{"rt":2655,"stimulus":"stimuli/16.jpg","button_pressed":"1","name":"emotionType","trial_type":"image-button-response","trial_index":18,"time_elapsed":69293,"internal_node_id":"0.0-18.0","participant_id":"A11MCPY8W4U6FL"},{"rt":null,"stimulus":"<p style=\"font-size: 48px;\">+</p>","key_press":null,"Name":"fixation","trial_type":"html-keyboard-response","trial_index":19,"time_elapsed":69794,"internal_node_id":"0.0-19.0","participant_id":"A11MCPY8W4U6FL"},{"rt":null,"stimulus":"stimuli/21.jpg","button_pressed":null,"name":"noRating","trial_type":"image-button-response","trial_index":20,"time_elapsed":74796,"internal_node_id":"0.0-20.0","participant_id":"A11MCPY8W4U6FL"},{"rt":1106,"stimulus":"stimuli/21.jpg","button_pressed":"0","name":"valence","trial_type":"image-button-response","trial_index":21,"time_elapsed":75902,"internal_node_id":"0.0-21.0","participant_id":"A11MCPY8W4U6FL"},{"rt":2950,"response":"67","name":"rating","trial_type":"image-slider-response","trial_index":22,"time_elapsed":78853,"internal_node_id":"0.0-22.0","participant_id":"A11MCPY8W4U6FL"},{"rt":1219,"stimulus":"stimuli/21.jpg","button_pressed":"0","name":"emotionType","trial_type":"image-button-response","trial_index":23,"time_elapsed":80073,"internal_node_id":"0.0-23.0","participant_id":"A11MCPY8W4U6FL"},{"rt":null,"stimulus":"<p style=\"font-size: 48px;\">+</p>","key_press":null,"Name":"fixation","trial_type":"html-keyboard-response","trial_index":24,"time_elapsed":81575,"internal_node_id":"0.0-24.0","participant_id":"A11MCPY8W4U6FL"},{"rt":null,"stimulus":"stimuli/25.jpg","button_pressed":null,"name":"noRating","trial_type":"image-button-response","trial_index":25,"time_elapsed":86577,"internal_node_id":"0.0-25.0","participant_id":"A11MCPY8W4U6FL"},{"rt":1097,"stimulus":"stimuli/25.jpg","button_pressed":"0","name":"valence","trial_type":"image-button-response","trial_index":26,"time_elapsed":87676,"internal_node_id":"0.0-26.0","participant_id":"A11MCPY8W4U6FL"},{"rt":4773,"response":"16","name":"rating","trial_type":"image-slider-response","trial_index":27,"time_elapsed":92449,"internal_node_id":"0.0-27.0","participant_id":"A11MCPY8W4U6FL"},{"rt":2955,"stimulus":"stimuli/25.jpg","button_pressed":"2","name":"emotionType","trial_type":"image-button-response","trial_index":28,"time_elapsed":95406,"internal_node_id":"0.0-28.0","participant_id":"A11MCPY8W4U6FL"},{"rt":null,"stimulus":"<p style=\"font-size: 48px;\">+</p>","key_press":null,"Name":"fixation","trial_type":"html-keyboard-response","trial_index":29,"time_elapsed":96907,"internal_node_id":"0.0-29.0","participant_id":"A11MCPY8W4U6FL"},{"rt":null,"stimulus":"stimuli/17.jpg","button_pressed":null,"name":"noRating","trial_type":"image-button-response","trial_index":30,"time_elapsed":101908,"internal_node_id":"0.0-30.0","participant_id":"A11MCPY8W4U6FL"},{"rt":1230,"stimulus":"stimuli/17.jpg","button_pressed":"0","name":"valence","trial_type":"image-button-response","trial_index":31,"time_elapsed":103140,"internal_node_id":"0.0-31.0","participant_id":"A11MCPY8W4U6FL"},{"rt":2310,"response":"3","name":"rating","trial_type":"image-slider-response","trial_index":32,"time_elapsed":105451,"internal_node_id":"0.0-32.0","participant_id":"A11MCPY8W4U6FL"},{"rt":1161,"stimulus":"stimuli/17.jpg","button_pressed":"2","name":"emotionType","trial_type":"image-button-response","trial_index":33,"time_elapsed":106613,"internal_node_id":"0.0-33.0","participant_id":"A11MCPY8W4U6FL"},{"rt":4788,"responses":"{\"Q0\":\"rock\"}","trial_type":"survey-text","trial_index":34,"time_elapsed":111401,"internal_node_id":"0.0-34.0-0.0","participant_id":"A11MCPY8W4U6FL"},{"rt":null,"stimulus":"<p style=\"font-size: 48px;\">+</p>","key_press":null,"Name":"fixation","trial_type":"html-keyboard-response","trial_index":35,"time_elapsed":112902,"internal_node_id":"0.0-35.0","participant_id":"A11MCPY8W4U6FL"},{"rt":null,"stimulus":"stimuli/7.jpg","button_pressed":null,"name":"noRating","trial_type":"image-button-response","trial_index":36,"time_elapsed":117904,"internal_node_id":"0.0-36.0","participant_id":"A11MCPY8W4U6FL"},{"rt":25268,"stimulus":"stimuli/7.jpg","button_pressed":"0","name":"valence","trial_type":"image-button-response","trial_index":37,"time_elapsed":143174,"internal_node_id":"0.0-37.0","participant_id":"A11MCPY8W4U6FL"},{"rt":3131,"response":"33","name":"rating","trial_type":"image-slider-response","trial_index":38,"time_elapsed":146306,"internal_node_id":"0.0-38.0","participant_id":"A11MCPY8W4U6FL"},{"rt":1882,"stimulus":"stimuli/7.jpg","button_pressed":"0","name":"emotionType","trial_type":"image-button-response","trial_index":39,"time_elapsed":148188,"internal_node_id":"0.0-39.0","participant_id":"A11MCPY8W4U6FL"},{"rt":null,"stimulus":"<p style=\"font-size: 48px;\">+</p>","key_press":null,"Name":"fixation","trial_type":"html-keyboard-response","trial_index":40,"time_elapsed":148689,"internal_node_id":"0.0-40.0","participant_id":"A11MCPY8W4U6FL"},{"rt":null,"stimulus":"stimuli/68.jpg","button_pressed":null,"name":"noRating","trial_type":"image-button-response","trial_index":41,"time_elapsed":153690,"internal_node_id":"0.0-41.0","participant_id":"A11MCPY8W4U6FL"},{"rt":1134,"stimulus":"stimuli/68.jpg","button_pressed":"0","name":"valence","trial_type":"image-button-response","trial_index":42,"time_elapsed":154825,"internal_node_id":"0.0-42.0","participant_id":"A11MCPY8W4U6FL"},{"rt":1645,"response":"4","name":"rating","trial_type":"image-slider-response","trial_index":43,"time_elapsed":156471,"internal_node_id":"0.0-43.0","participant_id":"A11MCPY8W4U6FL"},{"rt":3261,"stimulus":"stimuli/68.jpg","button_pressed":"2","name":"emotionType","trial_type":"image-button-response","trial_index":44,"time_elapsed":159732,"internal_node_id":"0.0-44.0","participant_id":"A11MCPY8W4U6FL"},{"rt":null,"stimulus":"<p style=\"font-size: 48px;\">+</p>","key_press":null,"Name":"fixation","trial_type":"html-keyboard-response","trial_index":45,"time_elapsed":160235,"internal_node_id":"0.0-45.0","participant_id":"A11MCPY8W4U6FL"},{"rt":null,"stimulus":"stimuli/33.jpg","button_pressed":null,"name":"noRating","trial_type":"image-button-response","trial_index":46,"time_elapsed":165237,"internal_node_id":"0.0-46.0","participant_id":"A11MCPY8W4U6FL"},{"rt":877,"stimulus":"stimuli/33.jpg","button_pressed":"0","name":"valence","trial_type":"image-button-response","trial_index":47,"time_elapsed":166115,"internal_node_id":"0.0-47.0","participant_id":"A11MCPY8W4U6FL"},{"rt":4304,"response":"32","name":"rating","trial_type":"image-slider-response","trial_index":48,"time_elapsed":170419,"internal_node_id":"0.0-48.0","participant_id":"A11MCPY8W4U6FL"},{"rt":750,"stimulus":"stimuli/33.jpg","button_pressed":"1","name":"emotionType","trial_type":"image-button-response","trial_index":49,"time_elapsed":171170,"internal_node_id":"0.0-49.0","participant_id":"A11MCPY8W4U6FL"},{"rt":null,"stimulus":"<p style=\"font-size: 48px;\">+</p>","key_press":null,"Name":"fixation","trial_type":"html-keyboard-response","trial_index":50,"time_elapsed":171672,"internal_node_id":"0.0-50.0","participant_id":"A11MCPY8W4U6FL"},{"rt":null,"stimulus":"stimuli/50.jpg","button_pressed":null,"name":"noRating","trial_type":"image-button-response","trial_index":51,"time_elapsed":176674,"internal_node_id":"0.0-51.0","participant_id":"A11MCPY8W4U6FL"},{"rt":1163,"stimulus":"stimuli/50.jpg","button_pressed":"0","name":"valence","trial_type":"image-button-response","trial_index":52,"time_elapsed":177838,"internal_node_id":"0.0-52.0","participant_id":"A11MCPY8W4U6FL"},{"rt":1631,"response":"6","name":"rating","trial_type":"image-slider-response","trial_index":53,"time_elapsed":179471,"internal_node_id":"0.0-53.0","participant_id":"A11MCPY8W4U6FL"},{"rt":803,"stimulus":"stimuli/50.jpg","button_pressed":"2","name":"emotionType","trial_type":"image-button-response","trial_index":54,"time_elapsed":180274,"internal_node_id":"0.0-54.0","participant_id":"A11MCPY8W4U6FL"},{"rt":null,"stimulus":"<p style=\"font-size: 48px;\">+</p>","key_press":null,"Name":"fixation","trial_type":"html-keyboard-response","trial_index":55,"time_elapsed":180775,"internal_node_id":"0.0-55.0","participant_id":"A11MCPY8W4U6FL"},{"rt":null,"stimulus":"stimuli/36.jpg","button_pressed":null,"name":"noRating","trial_type":"image-button-response","trial_index":56,"time_elapsed":185778,"internal_node_id":"0.0-56.0","participant_id":"A11MCPY8W4U6FL"},{"rt":1648,"stimulus":"stimuli/36.jpg","button_pressed":"2","name":"valence","trial_type":"image-button-response","trial_index":57,"time_elapsed":187427,"internal_node_id":"0.0-57.0","participant_id":"A11MCPY8W4U6FL"},{"rt":6252,"response":"0","name":"rating","trial_type":"image-slider-response","trial_index":58,"time_elapsed":193680,"internal_node_id":"0.0-58.0","participant_id":"A11MCPY8W4U6FL"},{"rt":8293,"stimulus":"stimuli/36.jpg","button_pressed":"2","name":"emotionType","trial_type":"image-button-response","trial_index":59,"time_elapsed":204374,"internal_node_id":"0.0-59.0","participant_id":"A11MCPY8W4U6FL"},{"rt":4150,"responses":"{\"Q0\":\"sky\"}","trial_type":"survey-text","trial_index":60,"time_elapsed":208525,"internal_node_id":"0.0-60.0-0.0","participant_id":"A11MCPY8W4U6FL"},{"rt":null,"stimulus":"<p style=\"font-size: 48px;\">+</p>","key_press":null,"Name":"fixation","trial_type":"html-keyboard-response","trial_index":61,"time_elapsed":210028,"internal_node_id":"0.0-61.0","participant_id":"A11MCPY8W4U6FL"},{"rt":null,"stimulus":"stimuli/52.jpg","button_pressed":null,"name":"noRating","trial_type":"image-button-response","trial_index":62,"time_elapsed":215029,"internal_node_id":"0.0-62.0","participant_id":"A11MCPY8W4U6FL"},{"rt":1745,"stimulus":"stimuli/52.jpg","button_pressed":"0","name":"valence","trial_type":"image-button-response","trial_index":63,"time_elapsed":216775,"internal_node_id":"0.0-63.0","participant_id":"A11MCPY8W4U6FL"},{"rt":2405,"response":"10","name":"rating","trial_type":"image-slider-response","trial_index":64,"time_elapsed":219181,"internal_node_id":"0.0-64.0","participant_id":"A11MCPY8W4U6FL"},{"rt":758,"stimulus":"stimuli/52.jpg","button_pressed":"2","name":"emotionType","trial_type":"image-button-response","trial_index":65,"time_elapsed":219940,"internal_node_id":"0.0-65.0","participant_id":"A11MCPY8W4U6FL"},{"rt":null,"stimulus":"<p style=\"font-size: 48px;\">+</p>","key_press":null,"Name":"fixation","trial_type":"html-keyboard-response","trial_index":66,"time_elapsed":220941,"internal_node_id":"0.0-66.0","participant_id":"A11MCPY8W4U6FL"},{"rt":null,"stimulus":"stimuli/35.jpg","button_pressed":null,"name":"noRating","trial_type":"image-button-response","trial_index":67,"time_elapsed":225941,"internal_node_id":"0.0-67.0","participant_id":"A11MCPY8W4U6FL"},{"rt":2594,"stimulus":"stimuli/35.jpg","button_pressed":"2","name":"valence","trial_type":"image-button-response","trial_index":68,"time_elapsed":228537,"internal_node_id":"0.0-68.0","participant_id":"A11MCPY8W4U6FL"},{"rt":2211,"response":"2","name":"rating","trial_type":"image-slider-response","trial_index":69,"time_elapsed":230749,"internal_node_id":"0.0-69.0","participant_id":"A11MCPY8W4U6FL"},{"rt":1838,"stimulus":"stimuli/35.jpg","button_pressed":"2","name":"emotionType","trial_type":"image-button-response","trial_index":70,"time_elapsed":232587,"internal_node_id":"0.0-70.0","participant_id":"A11MCPY8W4U6FL"},{"rt":null,"stimulus":"<p style=\"font-size: 48px;\">+</p>","key_press":null,"Name":"fixation","trial_type":"html-keyboard-response","trial_index":71,"time_elapsed":233590,"internal_node_id":"0.0-71.0","participant_id":"A11MCPY8W4U6FL"},{"rt":null,"stimulus":"stimuli/63.jpg","button_pressed":null,"name":"noRating","trial_type":"image-button-response","trial_index":72,"time_elapsed":238593,"internal_node_id":"0.0-72.0","participant_id":"A11MCPY8W4U6FL"},{"rt":856,"stimulus":"stimuli/63.jpg","button_pressed":"0","name":"valence","trial_type":"image-button-response","trial_index":73,"time_elapsed":239450,"internal_node_id":"0.0-73.0","participant_id":"A11MCPY8W4U6FL"},{"rt":3619,"response":"33","name":"rating","trial_type":"image-slider-response","trial_index":74,"time_elapsed":243070,"internal_node_id":"0.0-74.0","participant_id":"A11MCPY8W4U6FL"},{"rt":2085,"stimulus":"stimuli/63.jpg","button_pressed":"0","name":"emotionType","trial_type":"image-button-response","trial_index":75,"time_elapsed":245156,"internal_node_id":"0.0-75.0","participant_id":"A11MCPY8W4U6FL"},{"rt":null,"stimulus":"<p style=\"font-size: 48px;\">+</p>","key_press":null,"Name":"fixation","trial_type":"html-keyboard-response","trial_index":76,"time_elapsed":246658,"internal_node_id":"0.0-76.0","participant_id":"A11MCPY8W4U6FL"},{"rt":null,"stimulus":"stimuli/44.jpg","button_pressed":null,"name":"noRating","trial_type":"image-button-response","trial_index":77,"time_elapsed":251660,"internal_node_id":"0.0-77.0","participant_id":"A11MCPY8W4U6FL"},{"rt":653,"stimulus":"stimuli/44.jpg","button_pressed":"2","name":"valence","trial_type":"image-button-response","trial_index":78,"time_elapsed":252315,"internal_node_id":"0.0-78.0","participant_id":"A11MCPY8W4U6FL"},{"rt":2379,"response":"2","name":"rating","trial_type":"image-slider-response","trial_index":79,"time_elapsed":254694,"internal_node_id":"0.0-79.0","participant_id":"A11MCPY8W4U6FL"},{"rt":1305,"stimulus":"stimuli/44.jpg","button_pressed":"2","name":"emotionType","trial_type":"image-button-response","trial_index":80,"time_elapsed":256000,"internal_node_id":"0.0-80.0","participant_id":"A11MCPY8W4U6FL"},{"rt":null,"stimulus":"<p style=\"font-size: 48px;\">+</p>","key_press":null,"Name":"fixation","trial_type":"html-keyboard-response","trial_index":81,"time_elapsed":256501,"internal_node_id":"0.0-81.0","participant_id":"A11MCPY8W4U6FL"},{"rt":null,"stimulus":"stimuli/9.jpg","button_pressed":null,"name":"noRating","trial_type":"image-button-response","trial_index":82,"time_elapsed":261504,"internal_node_id":"0.0-82.0","participant_id":"A11MCPY8W4U6FL"},{"rt":6141,"stimulus":"stimuli/9.jpg","button_pressed":"0","name":"valence","trial_type":"image-button-response","trial_index":83,"time_elapsed":267647,"internal_node_id":"0.0-83.0","participant_id":"A11MCPY8W4U6FL"},{"rt":2315,"response":"15","name":"rating","trial_type":"image-slider-response","trial_index":84,"time_elapsed":269962,"internal_node_id":"0.0-84.0","participant_id":"A11MCPY8W4U6FL"},{"rt":1470,"stimulus":"stimuli/9.jpg","button_pressed":"2","name":"emotionType","trial_type":"image-button-response","trial_index":85,"time_elapsed":271433,"internal_node_id":"0.0-85.0","participant_id":"A11MCPY8W4U6FL"},{"rt":4015,"responses":"{\"Q0\":\"our\"}","trial_type":"survey-text","trial_index":86,"time_elapsed":275449,"internal_node_id":"0.0-86.0-0.0","participant_id":"A11MCPY8W4U6FL"},{"rt":null,"stimulus":"<p style=\"font-size: 48px;\">+</p>","key_press":null,"Name":"fixation","trial_type":"html-keyboard-response","trial_index":87,"time_elapsed":276950,"internal_node_id":"0.0-87.0","participant_id":"A11MCPY8W4U6FL"},{"rt":null,"stimulus":"stimuli/41.jpg","button_pressed":null,"name":"noRating","trial_type":"image-button-response","trial_index":88,"time_elapsed":281952,"internal_node_id":"0.0-88.0","participant_id":"A11MCPY8W4U6FL"},{"rt":1250,"stimulus":"stimuli/41.jpg","button_pressed":"2","name":"valence","trial_type":"image-button-response","trial_index":89,"time_elapsed":283202,"internal_node_id":"0.0-89.0","participant_id":"A11MCPY8W4U6FL"},{"rt":2233,"response":"2","name":"rating","trial_type":"image-slider-response","trial_index":90,"time_elapsed":285437,"internal_node_id":"0.0-90.0","participant_id":"A11MCPY8W4U6FL"},{"rt":1267,"stimulus":"stimuli/41.jpg","button_pressed":"2","name":"emotionType","trial_type":"image-button-response","trial_index":91,"time_elapsed":286705,"internal_node_id":"0.0-91.0","participant_id":"A11MCPY8W4U6FL"},{"rt":null,"stimulus":"<p style=\"font-size: 48px;\">+</p>","key_press":null,"Name":"fixation","trial_type":"html-keyboard-response","trial_index":92,"time_elapsed":287206,"internal_node_id":"0.0-92.0","participant_id":"A11MCPY8W4U6FL"},{"rt":null,"stimulus":"stimuli/28.jpg","button_pressed":null,"name":"noRating","trial_type":"image-button-response","trial_index":93,"time_elapsed":292208,"internal_node_id":"0.0-93.0","participant_id":"A11MCPY8W4U6FL"},{"rt":2495,"stimulus":"stimuli/28.jpg","button_pressed":"0","name":"valence","trial_type":"image-button-response","trial_index":94,"time_elapsed":294703,"internal_node_id":"0.0-94.0","participant_id":"A11MCPY8W4U6FL"},{"rt":2179,"response":"7","name":"rating","trial_type":"image-slider-response","trial_index":95,"time_elapsed":296884,"internal_node_id":"0.0-95.0","participant_id":"A11MCPY8W4U6FL"},{"rt":612,"stimulus":"stimuli/28.jpg","button_pressed":"2","name":"emotionType","trial_type":"image-button-response","trial_index":96,"time_elapsed":297496,"internal_node_id":"0.0-96.0","participant_id":"A11MCPY8W4U6FL"},{"rt":null,"stimulus":"<p style=\"font-size: 48px;\">+</p>","key_press":null,"Name":"fixation","trial_type":"html-keyboard-response","trial_index":97,"time_elapsed":298997,"internal_node_id":"0.0-97.0","participant_id":"A11MCPY8W4U6FL"},{"rt":null,"stimulus":"stimuli/23.jpg","button_pressed":null,"name":"noRating","trial_type":"image-button-response","trial_index":98,"time_elapsed":304000,"internal_node_id":"0.0-98.0","participant_id":"A11MCPY8W4U6FL"},{"rt":1132,"stimulus":"stimuli/23.jpg","button_pressed":"0","name":"valence","trial_type":"image-button-response","trial_index":99,"time_elapsed":305132,"internal_node_id":"0.0-99.0","participant_id":"A11MCPY8W4U6FL"},{"rt":2801,"response":"33","name":"rating","trial_type":"image-slider-response","trial_index":100,"time_elapsed":307934,"internal_node_id":"0.0-100.0","participant_id":"A11MCPY8W4U6FL"},{"rt":606,"stimulus":"stimuli/23.jpg","button_pressed":"2","name":"emotionType","trial_type":"image-button-response","trial_index":101,"time_elapsed":308540,"internal_node_id":"0.0-101.0","participant_id":"A11MCPY8W4U6FL"},{"rt":null,"stimulus":"<p style=\"font-size: 48px;\">+</p>","key_press":null,"Name":"fixation","trial_type":"html-keyboard-response","trial_index":102,"time_elapsed":309041,"internal_node_id":"0.0-102.0","participant_id":"A11MCPY8W4U6FL"},{"rt":null,"stimulus":"stimuli/1.jpg","button_pressed":null,"name":"noRating","trial_type":"image-button-response","trial_index":103,"time_elapsed":314043,"internal_node_id":"0.0-103.0","participant_id":"A11MCPY8W4U6FL"},{"rt":1419,"stimulus":"stimuli/1.jpg","button_pressed":"0","name":"valence","trial_type":"image-button-response","trial_index":104,"time_elapsed":315463,"internal_node_id":"0.0-104.0","participant_id":"A11MCPY8W4U6FL"},{"rt":2167,"response":"16","name":"rating","trial_type":"image-slider-response","trial_index":105,"time_elapsed":317631,"internal_node_id":"0.0-105.0","participant_id":"A11MCPY8W4U6FL"},{"rt":718,"stimulus":"stimuli/1.jpg","button_pressed":"2","name":"emotionType","trial_type":"image-button-response","trial_index":106,"time_elapsed":318350,"internal_node_id":"0.0-106.0","participant_id":"A11MCPY8W4U6FL"},{"rt":null,"stimulus":"<p style=\"font-size: 48px;\">+</p>","key_press":null,"Name":"fixation","trial_type":"html-keyboard-response","trial_index":107,"time_elapsed":319351,"internal_node_id":"0.0-107.0","participant_id":"A11MCPY8W4U6FL"},{"rt":null,"stimulus":"stimuli/45.jpg","button_pressed":null,"name":"noRating","trial_type":"image-button-response","trial_index":108,"time_elapsed":324353,"internal_node_id":"0.0-108.0","participant_id":"A11MCPY8W4U6FL"},{"rt":1027,"stimulus":"stimuli/45.jpg","button_pressed":"0","name":"valence","trial_type":"image-button-response","trial_index":109,"time_elapsed":325382,"internal_node_id":"0.0-109.0","participant_id":"A11MCPY8W4U6FL"},{"rt":2313,"response":"50","name":"rating","trial_type":"image-slider-response","trial_index":110,"time_elapsed":327695,"internal_node_id":"0.0-110.0","participant_id":"A11MCPY8W4U6FL"},{"rt":901,"stimulus":"stimuli/45.jpg","button_pressed":"0","name":"emotionType","trial_type":"image-button-response","trial_index":111,"time_elapsed":328598,"internal_node_id":"0.0-111.0","participant_id":"A11MCPY8W4U6FL"},{"rt":5282,"responses":"{\"Q0\":\"course\"}","trial_type":"survey-text","trial_index":112,"time_elapsed":333880,"internal_node_id":"0.0-112.0-0.0","participant_id":"A11MCPY8W4U6FL"},{"rt":null,"stimulus":"<p style=\"font-size: 48px;\">+</p>","key_press":null,"Name":"fixation","trial_type":"html-keyboard-response","trial_index":113,"time_elapsed":334881,"internal_node_id":"0.0-113.0","participant_id":"A11MCPY8W4U6FL"},{"rt":null,"stimulus":"stimuli/71.jpg","button_pressed":null,"name":"noRating","trial_type":"image-button-response","trial_index":114,"time_elapsed":339883,"internal_node_id":"0.0-114.0","participant_id":"A11MCPY8W4U6FL"},{"rt":1244,"stimulus":"stimuli/71.jpg","button_pressed":"0","name":"valence","trial_type":"image-button-response","trial_index":115,"time_elapsed":341128,"internal_node_id":"0.0-115.0","participant_id":"A11MCPY8W4U6FL"},{"rt":2679,"response":"67","name":"rating","trial_type":"image-slider-response","trial_index":116,"time_elapsed":343809,"internal_node_id":"0.0-116.0","participant_id":"A11MCPY8W4U6FL"},{"rt":1638,"stimulus":"stimuli/71.jpg","button_pressed":"1","name":"emotionType","trial_type":"image-button-response","trial_index":117,"time_elapsed":345448,"internal_node_id":"0.0-117.0","participant_id":"A11MCPY8W4U6FL"},{"rt":null,"stimulus":"<p style=\"font-size: 48px;\">+</p>","key_press":null,"Name":"fixation","trial_type":"html-keyboard-response","trial_index":118,"time_elapsed":345948,"internal_node_id":"0.0-118.0","participant_id":"A11MCPY8W4U6FL"},{"rt":null,"stimulus":"stimuli/67.jpg","button_pressed":null,"name":"noRating","trial_type":"image-button-response","trial_index":119,"time_elapsed":350949,"internal_node_id":"0.0-119.0","participant_id":"A11MCPY8W4U6FL"},{"rt":4654,"stimulus":"stimuli/67.jpg","button_pressed":"0","name":"valence","trial_type":"image-button-response","trial_index":120,"time_elapsed":355604,"internal_node_id":"0.0-120.0","participant_id":"A11MCPY8W4U6FL"},{"rt":3598,"response":"66","name":"rating","trial_type":"image-slider-response","trial_index":121,"time_elapsed":359202,"internal_node_id":"0.0-121.0","participant_id":"A11MCPY8W4U6FL"},{"rt":1015,"stimulus":"stimuli/67.jpg","button_pressed":"0","name":"emotionType","trial_type":"image-button-response","trial_index":122,"time_elapsed":360218,"internal_node_id":"0.0-122.0","participant_id":"A11MCPY8W4U6FL"},{"rt":null,"stimulus":"<p style=\"font-size: 48px;\">+</p>","key_press":null,"Name":"fixation","trial_type":"html-keyboard-response","trial_index":123,"time_elapsed":361219,"internal_node_id":"0.0-123.0","participant_id":"A11MCPY8W4U6FL"},{"rt":null,"stimulus":"stimuli/42.jpg","button_pressed":null,"name":"noRating","trial_type":"image-button-response","trial_index":124,"time_elapsed":366220,"internal_node_id":"0.0-124.0","participant_id":"A11MCPY8W4U6FL"},{"rt":1317,"stimulus":"stimuli/42.jpg","button_pressed":"2","name":"valence","trial_type":"image-button-response","trial_index":125,"time_elapsed":367538,"internal_node_id":"0.0-125.0","participant_id":"A11MCPY8W4U6FL"},{"rt":2098,"response":"3","name":"rating","trial_type":"image-slider-response","trial_index":126,"time_elapsed":369637,"internal_node_id":"0.0-126.0","participant_id":"A11MCPY8W4U6FL"},{"rt":1066,"stimulus":"stimuli/42.jpg","button_pressed":"2","name":"emotionType","trial_type":"image-button-response","trial_index":127,"time_elapsed":370704,"internal_node_id":"0.0-127.0","participant_id":"A11MCPY8W4U6FL"},{"rt":null,"stimulus":"<p style=\"font-size: 48px;\">+</p>","key_press":null,"Name":"fixation","trial_type":"html-keyboard-response","trial_index":128,"time_elapsed":371206,"internal_node_id":"0.0-128.0","participant_id":"A11MCPY8W4U6FL"},{"rt":null,"stimulus":"stimuli/10.jpg","button_pressed":null,"name":"noRating","trial_type":"image-button-response","trial_index":129,"time_elapsed":376207,"internal_node_id":"0.0-129.0","participant_id":"A11MCPY8W4U6FL"},{"rt":774,"stimulus":"stimuli/10.jpg","button_pressed":"2","name":"valence","trial_type":"image-button-response","trial_index":130,"time_elapsed":376982,"internal_node_id":"0.0-130.0","participant_id":"A11MCPY8W4U6FL"},{"rt":2076,"response":"4","name":"rating","trial_type":"image-slider-response","trial_index":131,"time_elapsed":379059,"internal_node_id":"0.0-131.0","participant_id":"A11MCPY8W4U6FL"},{"rt":3499,"stimulus":"stimuli/10.jpg","button_pressed":"2","name":"emotionType","trial_type":"image-button-response","trial_index":132,"time_elapsed":382559,"internal_node_id":"0.0-132.0","participant_id":"A11MCPY8W4U6FL"},{"rt":null,"stimulus":"<p style=\"font-size: 48px;\">+</p>","key_press":null,"Name":"fixation","trial_type":"html-keyboard-response","trial_index":133,"time_elapsed":383060,"internal_node_id":"0.0-133.0","participant_id":"A11MCPY8W4U6FL"},{"rt":null,"stimulus":"stimuli/5.jpg","button_pressed":null,"name":"noRating","trial_type":"image-button-response","trial_index":134,"time_elapsed":388061,"internal_node_id":"0.0-134.0","participant_id":"A11MCPY8W4U6FL"},{"rt":941,"stimulus":"stimuli/5.jpg","button_pressed":"0","name":"valence","trial_type":"image-button-response","trial_index":135,"time_elapsed":389003,"internal_node_id":"0.0-135.0","participant_id":"A11MCPY8W4U6FL"},{"rt":3315,"response":"33","name":"rating","trial_type":"image-slider-response","trial_index":136,"time_elapsed":392319,"internal_node_id":"0.0-136.0","participant_id":"A11MCPY8W4U6FL"},{"rt":720,"stimulus":"stimuli/5.jpg","button_pressed":"0","name":"emotionType","trial_type":"image-button-response","trial_index":137,"time_elapsed":393039,"internal_node_id":"0.0-137.0","participant_id":"A11MCPY8W4U6FL"},{"rt":3138,"responses":"{\"Q0\":\"we\"}","trial_type":"survey-text","trial_index":138,"time_elapsed":396178,"internal_node_id":"0.0-138.0-0.0","participant_id":"A11MCPY8W4U6FL"},{"rt":null,"stimulus":"<p style=\"font-size: 48px;\">+</p>","key_press":null,"Name":"fixation","trial_type":"html-keyboard-response","trial_index":139,"time_elapsed":396679,"internal_node_id":"0.0-139.0","participant_id":"A11MCPY8W4U6FL"},{"rt":null,"stimulus":"stimuli/58.jpg","button_pressed":null,"name":"noRating","trial_type":"image-button-response","trial_index":140,"time_elapsed":401681,"internal_node_id":"0.0-140.0","participant_id":"A11MCPY8W4U6FL"},{"rt":1518,"stimulus":"stimuli/58.jpg","button_pressed":"1","name":"valence","trial_type":"image-button-response","trial_index":141,"time_elapsed":403199,"internal_node_id":"0.0-141.0","participant_id":"A11MCPY8W4U6FL"},{"rt":2472,"response":"2","name":"rating","trial_type":"image-slider-response","trial_index":142,"time_elapsed":405672,"internal_node_id":"0.0-142.0","participant_id":"A11MCPY8W4U6FL"},{"rt":2512,"stimulus":"stimuli/58.jpg","button_pressed":"6","name":"emotionType","trial_type":"image-button-response","trial_index":143,"time_elapsed":408185,"internal_node_id":"0.0-143.0","participant_id":"A11MCPY8W4U6FL"},{"rt":null,"stimulus":"<p style=\"font-size: 48px;\">+</p>","key_press":null,"Name":"fixation","trial_type":"html-keyboard-response","trial_index":144,"time_elapsed":408686,"internal_node_id":"0.0-144.0","participant_id":"A11MCPY8W4U6FL"},{"rt":null,"stimulus":"stimuli/38.jpg","button_pressed":null,"name":"noRating","trial_type":"image-button-response","trial_index":145,"time_elapsed":413687,"internal_node_id":"0.0-145.0","participant_id":"A11MCPY8W4U6FL"},{"rt":2452,"stimulus":"stimuli/38.jpg","button_pressed":"2","name":"valence","trial_type":"image-button-response","trial_index":146,"time_elapsed":416140,"internal_node_id":"0.0-146.0","participant_id":"A11MCPY8W4U6FL"},{"rt":1896,"response":"3","name":"rating","trial_type":"image-slider-response","trial_index":147,"time_elapsed":418037,"internal_node_id":"0.0-147.0","participant_id":"A11MCPY8W4U6FL"},{"rt":633,"stimulus":"stimuli/38.jpg","button_pressed":"2","name":"emotionType","trial_type":"image-button-response","trial_index":148,"time_elapsed":418672,"internal_node_id":"0.0-148.0","participant_id":"A11MCPY8W4U6FL"},{"rt":null,"stimulus":"<p style=\"font-size: 48px;\">+</p>","key_press":null,"Name":"fixation","trial_type":"html-keyboard-response","trial_index":149,"time_elapsed":420173,"internal_node_id":"0.0-149.0","participant_id":"A11MCPY8W4U6FL"},{"rt":null,"stimulus":"stimuli/27.jpg","button_pressed":null,"name":"noRating","trial_type":"image-button-response","trial_index":150,"time_elapsed":425175,"internal_node_id":"0.0-150.0","participant_id":"A11MCPY8W4U6FL"},{"rt":2732,"stimulus":"stimuli/27.jpg","button_pressed":"2","name":"valence","trial_type":"image-button-response","trial_index":151,"time_elapsed":427908,"internal_node_id":"0.0-151.0","participant_id":"A11MCPY8W4U6FL"},{"rt":2194,"response":"3","name":"rating","trial_type":"image-slider-response","trial_index":152,"time_elapsed":430103,"internal_node_id":"0.0-152.0","participant_id":"A11MCPY8W4U6FL"},{"rt":791,"stimulus":"stimuli/27.jpg","button_pressed":"2","name":"emotionType","trial_type":"image-button-response","trial_index":153,"time_elapsed":430895,"internal_node_id":"0.0-153.0","participant_id":"A11MCPY8W4U6FL"},{"rt":null,"stimulus":"<p style=\"font-size: 48px;\">+</p>","key_press":null,"Name":"fixation","trial_type":"html-keyboard-response","trial_index":154,"time_elapsed":431397,"internal_node_id":"0.0-154.0","participant_id":"A11MCPY8W4U6FL"},{"rt":null,"stimulus":"stimuli/53.jpg","button_pressed":null,"name":"noRating","trial_type":"image-button-response","trial_index":155,"time_elapsed":436399,"internal_node_id":"0.0-155.0","participant_id":"A11MCPY8W4U6FL"},{"rt":1658,"stimulus":"stimuli/53.jpg","button_pressed":"2","name":"valence","trial_type":"image-button-response","trial_index":156,"time_elapsed":438058,"internal_node_id":"0.0-156.0","participant_id":"A11MCPY8W4U6FL"},{"rt":2475,"response":"67","name":"rating","trial_type":"image-slider-response","trial_index":157,"time_elapsed":440534,"internal_node_id":"0.0-157.0","participant_id":"A11MCPY8W4U6FL"},{"rt":1271,"stimulus":"stimuli/53.jpg","button_pressed":"2","name":"emotionType","trial_type":"image-button-response","trial_index":158,"time_elapsed":441805,"internal_node_id":"0.0-158.0","participant_id":"A11MCPY8W4U6FL"},{"rt":null,"stimulus":"<p style=\"font-size: 48px;\">+</p>","key_press":null,"Name":"fixation","trial_type":"html-keyboard-response","trial_index":159,"time_elapsed":442807,"internal_node_id":"0.0-159.0","participant_id":"A11MCPY8W4U6FL"},{"rt":null,"stimulus":"stimuli/64.jpg","button_pressed":null,"name":"noRating","trial_type":"image-button-response","trial_index":160,"time_elapsed":447809,"internal_node_id":"0.0-160.0","participant_id":"A11MCPY8W4U6FL"},{"rt":785,"stimulus":"stimuli/64.jpg","button_pressed":"1","name":"valence","trial_type":"image-button-response","trial_index":161,"time_elapsed":448595,"internal_node_id":"0.0-161.0","participant_id":"A11MCPY8W4U6FL"},{"rt":2523,"response":"17","name":"rating","trial_type":"image-slider-response","trial_index":162,"time_elapsed":451119,"internal_node_id":"0.0-162.0","participant_id":"A11MCPY8W4U6FL"},{"rt":2726,"stimulus":"stimuli/64.jpg","button_pressed":"7","name":"emotionType","trial_type":"image-button-response","trial_index":163,"time_elapsed":453845,"internal_node_id":"0.0-163.0","participant_id":"A11MCPY8W4U6FL"},{"rt":3471,"stimulus":"stimuli/ins/Slide8.JPG","button_pressed":"0","trial_type":"image-button-response","trial_index":164,"time_elapsed":457318,"internal_node_id":"0.0-164.0","participant_id":"A11MCPY8W4U6FL"}]