[{"rt":6984,"responses":"{\"Q0\":\"A12DY4HHG6MYF0\"}","trial_type":"survey-text","trial_index":0,"time_elapsed":6987,"internal_node_id":"0.0-0.0-0.0","participant_id":"A12DY4HHG6MYF0"},{"rt":7354,"stimulus":"stimuli/ins/Slide1.JPG","button_pressed":"0","Name":"instructions","trial_type":"image-button-response","trial_index":1,"time_elapsed":14343,"internal_node_id":"0.0-1.0","participant_id":"A12DY4HHG6MYF0"},{"rt":4293,"stimulus":"stimuli/ins/Slide2.JPG","button_pressed":"0","Name":"instructions","trial_type":"image-button-response","trial_index":2,"time_elapsed":18637,"internal_node_id":"0.0-2.0","participant_id":"A12DY4HHG6MYF0"},{"rt":5211,"stimulus":"stimuli/ins/Slide3.JPG","button_pressed":"0","Name":"instructions","trial_type":"image-button-response","trial_index":3,"time_elapsed":23849,"internal_node_id":"0.0-3.0","participant_id":"A12DY4HHG6MYF0"},{"rt":4363,"stimulus":"stimuli/ins/Slide4.JPG","button_pressed":"0","Name":"instructions","trial_type":"image-button-response","trial_index":4,"time_elapsed":28213,"internal_node_id":"0.0-4.0","participant_id":"A12DY4HHG6MYF0"},{"rt":2951,"stimulus":"stimuli/ins/Slide5.JPG","button_pressed":"0","Name":"instructions","trial_type":"image-button-response","trial_index":5,"time_elapsed":31165,"internal_node_id":"0.0-5.0","participant_id":"A12DY4HHG6MYF0"},{"rt":2105,"stimulus":"stimuli/ins/Slide6.JPG","button_pressed":"0","Name":"instructions","trial_type":"image-button-response","trial_index":6,"time_elapsed":33271,"internal_node_id":"0.0-6.0","participant_id":"A12DY4HHG6MYF0"},{"rt":1101,"stimulus":"stimuli/ins/Slide7.JPG","button_pressed":"0","Name":"instructions","trial_type":"image-button-response","trial_index":7,"time_elapsed":34373,"internal_node_id":"0.0-7.0","participant_id":"A12DY4HHG6MYF0"},{"rt":8923,"responses":"{\"Q0\":\"but\"}","trial_type":"survey-text","trial_index":8,"time_elapsed":43296,"internal_node_id":"0.0-8.0-0.0","participant_id":"A12DY4HHG6MYF0"},{"rt":null,"stimulus":"<p style=\"font-size: 48px;\">+</p>","key_press":null,"Name":"fixation","trial_type":"html-keyboard-response","trial_index":9,"time_elapsed":43799,"internal_node_id":"0.0-9.0","participant_id":"A12DY4HHG6MYF0"},{"rt":null,"stimulus":"stimuli/51.jpg","button_pressed":null,"name":"noRating","trial_type":"image-button-response","trial_index":10,"time_elapsed":48803,"internal_node_id":"0.0-10.0","participant_id":"A12DY4HHG6MYF0"},{"rt":1723,"stimulus":"stimuli/51.jpg","button_pressed":"0","name":"valence","trial_type":"image-button-response","trial_index":11,"time_elapsed":50527,"internal_node_id":"0.0-11.0","participant_id":"A12DY4HHG6MYF0"},{"rt":2811,"response":"100","name":"rating","trial_type":"image-slider-response","trial_index":12,"time_elapsed":53339,"internal_node_id":"0.0-12.0","participant_id":"A12DY4HHG6MYF0"},{"rt":1817,"stimulus":"stimuli/51.jpg","button_pressed":"0","name":"emotionType","trial_type":"image-button-response","trial_index":13,"time_elapsed":55157,"internal_node_id":"0.0-13.0","participant_id":"A12DY4HHG6MYF0"},{"rt":null,"stimulus":"<p style=\"font-size: 48px;\">+</p>","key_press":null,"Name":"fixation","trial_type":"html-keyboard-response","trial_index":14,"time_elapsed":56663,"internal_node_id":"0.0-14.0","participant_id":"A12DY4HHG6MYF0"},{"rt":null,"stimulus":"stimuli/15.jpg","button_pressed":null,"name":"noRating","trial_type":"image-button-response","trial_index":15,"time_elapsed":61666,"internal_node_id":"0.0-15.0","participant_id":"A12DY4HHG6MYF0"},{"rt":1265,"stimulus":"stimuli/15.jpg","button_pressed":"0","name":"valence","trial_type":"image-button-response","trial_index":16,"time_elapsed":62931,"internal_node_id":"0.0-16.0","participant_id":"A12DY4HHG6MYF0"},{"rt":2321,"response":"99","name":"rating","trial_type":"image-slider-response","trial_index":17,"time_elapsed":65253,"internal_node_id":"0.0-17.0","participant_id":"A12DY4HHG6MYF0"},{"rt":2011,"stimulus":"stimuli/15.jpg","button_pressed":"1","name":"emotionType","trial_type":"image-button-response","trial_index":18,"time_elapsed":67265,"internal_node_id":"0.0-18.0","participant_id":"A12DY4HHG6MYF0"},{"rt":null,"stimulus":"<p style=\"font-size: 48px;\">+</p>","key_press":null,"Name":"fixation","trial_type":"html-keyboard-response","trial_index":19,"time_elapsed":68767,"internal_node_id":"0.0-19.0","participant_id":"A12DY4HHG6MYF0"},{"rt":null,"stimulus":"stimuli/31.jpg","button_pressed":null,"name":"noRating","trial_type":"image-button-response","trial_index":20,"time_elapsed":73767,"internal_node_id":"0.0-20.0","participant_id":"A12DY4HHG6MYF0"},{"rt":2203,"stimulus":"stimuli/31.jpg","button_pressed":"0","name":"valence","trial_type":"image-button-response","trial_index":21,"time_elapsed":75971,"internal_node_id":"0.0-21.0","participant_id":"A12DY4HHG6MYF0"},{"rt":2245,"response":"100","name":"rating","trial_type":"image-slider-response","trial_index":22,"time_elapsed":78217,"internal_node_id":"0.0-22.0","participant_id":"A12DY4HHG6MYF0"},{"rt":10851,"stimulus":"stimuli/31.jpg","button_pressed":"0","name":"emotionType","trial_type":"image-button-response","trial_index":23,"time_elapsed":89069,"internal_node_id":"0.0-23.0","participant_id":"A12DY4HHG6MYF0"},{"rt":null,"stimulus":"<p style=\"font-size: 48px;\">+</p>","key_press":null,"Name":"fixation","trial_type":"html-keyboard-response","trial_index":24,"time_elapsed":89572,"internal_node_id":"0.0-24.0","participant_id":"A12DY4HHG6MYF0"},{"rt":null,"stimulus":"stimuli/66.jpg","button_pressed":null,"name":"noRating","trial_type":"image-button-response","trial_index":25,"time_elapsed":94573,"internal_node_id":"0.0-25.0","participant_id":"A12DY4HHG6MYF0"},{"rt":9937,"stimulus":"stimuli/66.jpg","button_pressed":"0","name":"valence","trial_type":"image-button-response","trial_index":26,"time_elapsed":104511,"internal_node_id":"0.0-26.0","participant_id":"A12DY4HHG6MYF0"},{"rt":2920,"response":"82","name":"rating","trial_type":"image-slider-response","trial_index":27,"time_elapsed":107431,"internal_node_id":"0.0-27.0","participant_id":"A12DY4HHG6MYF0"},{"rt":6601,"stimulus":"stimuli/66.jpg","button_pressed":"0","name":"emotionType","trial_type":"image-button-response","trial_index":28,"time_elapsed":114033,"internal_node_id":"0.0-28.0","participant_id":"A12DY4HHG6MYF0"},{"rt":null,"stimulus":"<p style=\"font-size: 48px;\">+</p>","key_press":null,"Name":"fixation","trial_type":"html-keyboard-response","trial_index":29,"time_elapsed":114535,"internal_node_id":"0.0-29.0","participant_id":"A12DY4HHG6MYF0"},{"rt":null,"stimulus":"stimuli/8.jpg","button_pressed":null,"name":"noRating","trial_type":"image-button-response","trial_index":30,"time_elapsed":119536,"internal_node_id":"0.0-30.0","participant_id":"A12DY4HHG6MYF0"},{"rt":1510,"stimulus":"stimuli/8.jpg","button_pressed":"0","name":"valence","trial_type":"image-button-response","trial_index":31,"time_elapsed":121047,"internal_node_id":"0.0-31.0","participant_id":"A12DY4HHG6MYF0"},{"rt":2089,"response":"99","name":"rating","trial_type":"image-slider-response","trial_index":32,"time_elapsed":123137,"internal_node_id":"0.0-32.0","participant_id":"A12DY4HHG6MYF0"},{"rt":1753,"stimulus":"stimuli/8.jpg","button_pressed":"0","name":"emotionType","trial_type":"image-button-response","trial_index":33,"time_elapsed":124891,"internal_node_id":"0.0-33.0","participant_id":"A12DY4HHG6MYF0"},{"rt":6432,"responses":"{\"Q0\":\"rock\"}","trial_type":"survey-text","trial_index":34,"time_elapsed":131323,"internal_node_id":"0.0-34.0-0.0","participant_id":"A12DY4HHG6MYF0"},{"rt":null,"stimulus":"<p style=\"font-size: 48px;\">+</p>","key_press":null,"Name":"fixation","trial_type":"html-keyboard-response","trial_index":35,"time_elapsed":131824,"internal_node_id":"0.0-35.0","participant_id":"A12DY4HHG6MYF0"},{"rt":null,"stimulus":"stimuli/71.jpg","button_pressed":null,"name":"noRating","trial_type":"image-button-response","trial_index":36,"time_elapsed":136825,"internal_node_id":"0.0-36.0","participant_id":"A12DY4HHG6MYF0"},{"rt":1884,"stimulus":"stimuli/71.jpg","button_pressed":"0","name":"valence","trial_type":"image-button-response","trial_index":37,"time_elapsed":138711,"internal_node_id":"0.0-37.0","participant_id":"A12DY4HHG6MYF0"},{"rt":2406,"response":"100","name":"rating","trial_type":"image-slider-response","trial_index":38,"time_elapsed":141117,"internal_node_id":"0.0-38.0","participant_id":"A12DY4HHG6MYF0"},{"rt":1522,"stimulus":"stimuli/71.jpg","button_pressed":"1","name":"emotionType","trial_type":"image-button-response","trial_index":39,"time_elapsed":142639,"internal_node_id":"0.0-39.0","participant_id":"A12DY4HHG6MYF0"},{"rt":null,"stimulus":"<p style=\"font-size: 48px;\">+</p>","key_press":null,"Name":"fixation","trial_type":"html-keyboard-response","trial_index":40,"time_elapsed":144141,"internal_node_id":"0.0-40.0","participant_id":"A12DY4HHG6MYF0"},{"rt":null,"stimulus":"stimuli/43.jpg","button_pressed":null,"name":"noRating","trial_type":"image-button-response","trial_index":41,"time_elapsed":149143,"internal_node_id":"0.0-41.0","participant_id":"A12DY4HHG6MYF0"},{"rt":1506,"stimulus":"stimuli/43.jpg","button_pressed":"0","name":"valence","trial_type":"image-button-response","trial_index":42,"time_elapsed":150650,"internal_node_id":"0.0-42.0","participant_id":"A12DY4HHG6MYF0"},{"rt":2227,"response":"98","name":"rating","trial_type":"image-slider-response","trial_index":43,"time_elapsed":152878,"internal_node_id":"0.0-43.0","participant_id":"A12DY4HHG6MYF0"},{"rt":2453,"stimulus":"stimuli/43.jpg","button_pressed":"1","name":"emotionType","trial_type":"image-button-response","trial_index":44,"time_elapsed":155331,"internal_node_id":"0.0-44.0","participant_id":"A12DY4HHG6MYF0"},{"rt":null,"stimulus":"<p style=\"font-size: 48px;\">+</p>","key_press":null,"Name":"fixation","trial_type":"html-keyboard-response","trial_index":45,"time_elapsed":156333,"internal_node_id":"0.0-45.0","participant_id":"A12DY4HHG6MYF0"},{"rt":null,"stimulus":"stimuli/64.jpg","button_pressed":null,"name":"noRating","trial_type":"image-button-response","trial_index":46,"time_elapsed":161335,"internal_node_id":"0.0-46.0","participant_id":"A12DY4HHG6MYF0"},{"rt":1258,"stimulus":"stimuli/64.jpg","button_pressed":"0","name":"valence","trial_type":"image-button-response","trial_index":47,"time_elapsed":162593,"internal_node_id":"0.0-47.0","participant_id":"A12DY4HHG6MYF0"},{"rt":1943,"response":"98","name":"rating","trial_type":"image-slider-response","trial_index":48,"time_elapsed":164537,"internal_node_id":"0.0-48.0","participant_id":"A12DY4HHG6MYF0"},{"rt":875,"stimulus":"stimuli/64.jpg","button_pressed":"1","name":"emotionType","trial_type":"image-button-response","trial_index":49,"time_elapsed":165413,"internal_node_id":"0.0-49.0","participant_id":"A12DY4HHG6MYF0"},{"rt":null,"stimulus":"<p style=\"font-size: 48px;\">+</p>","key_press":null,"Name":"fixation","trial_type":"html-keyboard-response","trial_index":50,"time_elapsed":165916,"internal_node_id":"0.0-50.0","participant_id":"A12DY4HHG6MYF0"},{"rt":null,"stimulus":"stimuli/21.jpg","button_pressed":null,"name":"noRating","trial_type":"image-button-response","trial_index":51,"time_elapsed":170919,"internal_node_id":"0.0-51.0","participant_id":"A12DY4HHG6MYF0"},{"rt":1088,"stimulus":"stimuli/21.jpg","button_pressed":"0","name":"valence","trial_type":"image-button-response","trial_index":52,"time_elapsed":172007,"internal_node_id":"0.0-52.0","participant_id":"A12DY4HHG6MYF0"},{"rt":3177,"response":"98","name":"rating","trial_type":"image-slider-response","trial_index":53,"time_elapsed":175185,"internal_node_id":"0.0-53.0","participant_id":"A12DY4HHG6MYF0"},{"rt":861,"stimulus":"stimuli/21.jpg","button_pressed":"1","name":"emotionType","trial_type":"image-button-response","trial_index":54,"time_elapsed":176048,"internal_node_id":"0.0-54.0","participant_id":"A12DY4HHG6MYF0"},{"rt":null,"stimulus":"<p style=\"font-size: 48px;\">+</p>","key_press":null,"Name":"fixation","trial_type":"html-keyboard-response","trial_index":55,"time_elapsed":177049,"internal_node_id":"0.0-55.0","participant_id":"A12DY4HHG6MYF0"},{"rt":null,"stimulus":"stimuli/47.jpg","button_pressed":null,"name":"noRating","trial_type":"image-button-response","trial_index":56,"time_elapsed":182050,"internal_node_id":"0.0-56.0","participant_id":"A12DY4HHG6MYF0"},{"rt":1498,"stimulus":"stimuli/47.jpg","button_pressed":"0","name":"valence","trial_type":"image-button-response","trial_index":57,"time_elapsed":183549,"internal_node_id":"0.0-57.0","participant_id":"A12DY4HHG6MYF0"},{"rt":1871,"response":"99","name":"rating","trial_type":"image-slider-response","trial_index":58,"time_elapsed":185421,"internal_node_id":"0.0-58.0","participant_id":"A12DY4HHG6MYF0"},{"rt":1376,"stimulus":"stimuli/47.jpg","button_pressed":"0","name":"emotionType","trial_type":"image-button-response","trial_index":59,"time_elapsed":186797,"internal_node_id":"0.0-59.0","participant_id":"A12DY4HHG6MYF0"},{"rt":5303,"responses":"{\"Q0\":\"sky\"}","trial_type":"survey-text","trial_index":60,"time_elapsed":192101,"internal_node_id":"0.0-60.0-0.0","participant_id":"A12DY4HHG6MYF0"},{"rt":null,"stimulus":"<p style=\"font-size: 48px;\">+</p>","key_press":null,"Name":"fixation","trial_type":"html-keyboard-response","trial_index":61,"time_elapsed":192602,"internal_node_id":"0.0-61.0","participant_id":"A12DY4HHG6MYF0"},{"rt":null,"stimulus":"stimuli/18.jpg","button_pressed":null,"name":"noRating","trial_type":"image-button-response","trial_index":62,"time_elapsed":197603,"internal_node_id":"0.0-62.0","participant_id":"A12DY4HHG6MYF0"},{"rt":1148,"stimulus":"stimuli/18.jpg","button_pressed":"0","name":"valence","trial_type":"image-button-response","trial_index":63,"time_elapsed":198751,"internal_node_id":"0.0-63.0","participant_id":"A12DY4HHG6MYF0"},{"rt":2135,"response":"100","name":"rating","trial_type":"image-slider-response","trial_index":64,"time_elapsed":200887,"internal_node_id":"0.0-64.0","participant_id":"A12DY4HHG6MYF0"},{"rt":1218,"stimulus":"stimuli/18.jpg","button_pressed":"0","name":"emotionType","trial_type":"image-button-response","trial_index":65,"time_elapsed":202105,"internal_node_id":"0.0-65.0","participant_id":"A12DY4HHG6MYF0"},{"rt":null,"stimulus":"<p style=\"font-size: 48px;\">+</p>","key_press":null,"Name":"fixation","trial_type":"html-keyboard-response","trial_index":66,"time_elapsed":203108,"internal_node_id":"0.0-66.0","participant_id":"A12DY4HHG6MYF0"},{"rt":null,"stimulus":"stimuli/56.jpg","button_pressed":null,"name":"noRating","trial_type":"image-button-response","trial_index":67,"time_elapsed":208108,"internal_node_id":"0.0-67.0","participant_id":"A12DY4HHG6MYF0"},{"rt":2800,"stimulus":"stimuli/56.jpg","button_pressed":"0","name":"valence","trial_type":"image-button-response","trial_index":68,"time_elapsed":210913,"internal_node_id":"0.0-68.0","participant_id":"A12DY4HHG6MYF0"},{"rt":1771,"response":"99","name":"rating","trial_type":"image-slider-response","trial_index":69,"time_elapsed":212685,"internal_node_id":"0.0-69.0","participant_id":"A12DY4HHG6MYF0"},{"rt":1063,"stimulus":"stimuli/56.jpg","button_pressed":"1","name":"emotionType","trial_type":"image-button-response","trial_index":70,"time_elapsed":213749,"internal_node_id":"0.0-70.0","participant_id":"A12DY4HHG6MYF0"},{"rt":null,"stimulus":"<p style=\"font-size: 48px;\">+</p>","key_press":null,"Name":"fixation","trial_type":"html-keyboard-response","trial_index":71,"time_elapsed":214251,"internal_node_id":"0.0-71.0","participant_id":"A12DY4HHG6MYF0"},{"rt":null,"stimulus":"stimuli/2.jpg","button_pressed":null,"name":"noRating","trial_type":"image-button-response","trial_index":72,"time_elapsed":219253,"internal_node_id":"0.0-72.0","participant_id":"A12DY4HHG6MYF0"},{"rt":1254,"stimulus":"stimuli/2.jpg","button_pressed":"0","name":"valence","trial_type":"image-button-response","trial_index":73,"time_elapsed":220507,"internal_node_id":"0.0-73.0","participant_id":"A12DY4HHG6MYF0"},{"rt":3036,"response":"100","name":"rating","trial_type":"image-slider-response","trial_index":74,"time_elapsed":223543,"internal_node_id":"0.0-74.0","participant_id":"A12DY4HHG6MYF0"},{"rt":815,"stimulus":"stimuli/2.jpg","button_pressed":"1","name":"emotionType","trial_type":"image-button-response","trial_index":75,"time_elapsed":224359,"internal_node_id":"0.0-75.0","participant_id":"A12DY4HHG6MYF0"},{"rt":null,"stimulus":"<p style=\"font-size: 48px;\">+</p>","key_press":null,"Name":"fixation","trial_type":"html-keyboard-response","trial_index":76,"time_elapsed":224861,"internal_node_id":"0.0-76.0","participant_id":"A12DY4HHG6MYF0"},{"rt":null,"stimulus":"stimuli/55.jpg","button_pressed":null,"name":"noRating","trial_type":"image-button-response","trial_index":77,"time_elapsed":229863,"internal_node_id":"0.0-77.0","participant_id":"A12DY4HHG6MYF0"},{"rt":1106,"stimulus":"stimuli/55.jpg","button_pressed":"0","name":"valence","trial_type":"image-button-response","trial_index":78,"time_elapsed":230969,"internal_node_id":"0.0-78.0","participant_id":"A12DY4HHG6MYF0"},{"rt":1901,"response":"99","name":"rating","trial_type":"image-slider-response","trial_index":79,"time_elapsed":232871,"internal_node_id":"0.0-79.0","participant_id":"A12DY4HHG6MYF0"},{"rt":1787,"stimulus":"stimuli/55.jpg","button_pressed":"0","name":"emotionType","trial_type":"image-button-response","trial_index":80,"time_elapsed":234659,"internal_node_id":"0.0-80.0","participant_id":"A12DY4HHG6MYF0"},{"rt":null,"stimulus":"<p style=\"font-size: 48px;\">+</p>","key_press":null,"Name":"fixation","trial_type":"html-keyboard-response","trial_index":81,"time_elapsed":236160,"internal_node_id":"0.0-81.0","participant_id":"A12DY4HHG6MYF0"},{"rt":null,"stimulus":"stimuli/28.jpg","button_pressed":null,"name":"noRating","trial_type":"image-button-response","trial_index":82,"time_elapsed":241162,"internal_node_id":"0.0-82.0","participant_id":"A12DY4HHG6MYF0"},{"rt":2484,"stimulus":"stimuli/28.jpg","button_pressed":"0","name":"valence","trial_type":"image-button-response","trial_index":83,"time_elapsed":243647,"internal_node_id":"0.0-83.0","participant_id":"A12DY4HHG6MYF0"},{"rt":2849,"response":"100","name":"rating","trial_type":"image-slider-response","trial_index":84,"time_elapsed":246497,"internal_node_id":"0.0-84.0","participant_id":"A12DY4HHG6MYF0"},{"rt":769,"stimulus":"stimuli/28.jpg","button_pressed":"0","name":"emotionType","trial_type":"image-button-response","trial_index":85,"time_elapsed":247267,"internal_node_id":"0.0-85.0","participant_id":"A12DY4HHG6MYF0"},{"rt":4465,"responses":"{\"Q0\":\"our\"}","trial_type":"survey-text","trial_index":86,"time_elapsed":251733,"internal_node_id":"0.0-86.0-0.0","participant_id":"A12DY4HHG6MYF0"},{"rt":null,"stimulus":"<p style=\"font-size: 48px;\">+</p>","key_press":null,"Name":"fixation","trial_type":"html-keyboard-response","trial_index":87,"time_elapsed":252235,"internal_node_id":"0.0-87.0","participant_id":"A12DY4HHG6MYF0"},{"rt":null,"stimulus":"stimuli/5.jpg","button_pressed":null,"name":"noRating","trial_type":"image-button-response","trial_index":88,"time_elapsed":257237,"internal_node_id":"0.0-88.0","participant_id":"A12DY4HHG6MYF0"},{"rt":1479,"stimulus":"stimuli/5.jpg","button_pressed":"0","name":"valence","trial_type":"image-button-response","trial_index":89,"time_elapsed":258717,"internal_node_id":"0.0-89.0","participant_id":"A12DY4HHG6MYF0"},{"rt":2087,"response":"100","name":"rating","trial_type":"image-slider-response","trial_index":90,"time_elapsed":260805,"internal_node_id":"0.0-90.0","participant_id":"A12DY4HHG6MYF0"},{"rt":1049,"stimulus":"stimuli/5.jpg","button_pressed":"1","name":"emotionType","trial_type":"image-button-response","trial_index":91,"time_elapsed":261855,"internal_node_id":"0.0-91.0","participant_id":"A12DY4HHG6MYF0"},{"rt":null,"stimulus":"<p style=\"font-size: 48px;\">+</p>","key_press":null,"Name":"fixation","trial_type":"html-keyboard-response","trial_index":92,"time_elapsed":263356,"internal_node_id":"0.0-92.0","participant_id":"A12DY4HHG6MYF0"},{"rt":null,"stimulus":"stimuli/24.jpg","button_pressed":null,"name":"noRating","trial_type":"image-button-response","trial_index":93,"time_elapsed":268358,"internal_node_id":"0.0-93.0","participant_id":"A12DY4HHG6MYF0"},{"rt":1200,"stimulus":"stimuli/24.jpg","button_pressed":"0","name":"valence","trial_type":"image-button-response","trial_index":94,"time_elapsed":269559,"internal_node_id":"0.0-94.0","participant_id":"A12DY4HHG6MYF0"},{"rt":1839,"response":"100","name":"rating","trial_type":"image-slider-response","trial_index":95,"time_elapsed":271399,"internal_node_id":"0.0-95.0","participant_id":"A12DY4HHG6MYF0"},{"rt":646,"stimulus":"stimuli/24.jpg","button_pressed":"0","name":"emotionType","trial_type":"image-button-response","trial_index":96,"time_elapsed":272045,"internal_node_id":"0.0-96.0","participant_id":"A12DY4HHG6MYF0"},{"rt":null,"stimulus":"<p style=\"font-size: 48px;\">+</p>","key_press":null,"Name":"fixation","trial_type":"html-keyboard-response","trial_index":97,"time_elapsed":272546,"internal_node_id":"0.0-97.0","participant_id":"A12DY4HHG6MYF0"},{"rt":null,"stimulus":"stimuli/26.jpg","button_pressed":null,"name":"noRating","trial_type":"image-button-response","trial_index":98,"time_elapsed":277548,"internal_node_id":"0.0-98.0","participant_id":"A12DY4HHG6MYF0"},{"rt":1354,"stimulus":"stimuli/26.jpg","button_pressed":"0","name":"valence","trial_type":"image-button-response","trial_index":99,"time_elapsed":278903,"internal_node_id":"0.0-99.0","participant_id":"A12DY4HHG6MYF0"},{"rt":2524,"response":"100","name":"rating","trial_type":"image-slider-response","trial_index":100,"time_elapsed":281428,"internal_node_id":"0.0-100.0","participant_id":"A12DY4HHG6MYF0"},{"rt":1817,"stimulus":"stimuli/26.jpg","button_pressed":"1","name":"emotionType","trial_type":"image-button-response","trial_index":101,"time_elapsed":283245,"internal_node_id":"0.0-101.0","participant_id":"A12DY4HHG6MYF0"},{"rt":null,"stimulus":"<p style=\"font-size: 48px;\">+</p>","key_press":null,"Name":"fixation","trial_type":"html-keyboard-response","trial_index":102,"time_elapsed":283746,"internal_node_id":"0.0-102.0","participant_id":"A12DY4HHG6MYF0"},{"rt":null,"stimulus":"stimuli/44.jpg","button_pressed":null,"name":"noRating","trial_type":"image-button-response","trial_index":103,"time_elapsed":288748,"internal_node_id":"0.0-103.0","participant_id":"A12DY4HHG6MYF0"},{"rt":1642,"stimulus":"stimuli/44.jpg","button_pressed":"0","name":"valence","trial_type":"image-button-response","trial_index":104,"time_elapsed":290391,"internal_node_id":"0.0-104.0","participant_id":"A12DY4HHG6MYF0"},{"rt":1755,"response":"99","name":"rating","trial_type":"image-slider-response","trial_index":105,"time_elapsed":292147,"internal_node_id":"0.0-105.0","participant_id":"A12DY4HHG6MYF0"},{"rt":753,"stimulus":"stimuli/44.jpg","button_pressed":"0","name":"emotionType","trial_type":"image-button-response","trial_index":106,"time_elapsed":292901,"internal_node_id":"0.0-106.0","participant_id":"A12DY4HHG6MYF0"},{"rt":null,"stimulus":"<p style=\"font-size: 48px;\">+</p>","key_press":null,"Name":"fixation","trial_type":"html-keyboard-response","trial_index":107,"time_elapsed":294403,"internal_node_id":"0.0-107.0","participant_id":"A12DY4HHG6MYF0"},{"rt":null,"stimulus":"stimuli/45.jpg","button_pressed":null,"name":"noRating","trial_type":"image-button-response","trial_index":108,"time_elapsed":299404,"internal_node_id":"0.0-108.0","participant_id":"A12DY4HHG6MYF0"},{"rt":928,"stimulus":"stimuli/45.jpg","button_pressed":"0","name":"valence","trial_type":"image-button-response","trial_index":109,"time_elapsed":300333,"internal_node_id":"0.0-109.0","participant_id":"A12DY4HHG6MYF0"},{"rt":1841,"response":"98","name":"rating","trial_type":"image-slider-response","trial_index":110,"time_elapsed":302175,"internal_node_id":"0.0-110.0","participant_id":"A12DY4HHG6MYF0"},{"rt":883,"stimulus":"stimuli/45.jpg","button_pressed":"2","name":"emotionType","trial_type":"image-button-response","trial_index":111,"time_elapsed":303059,"internal_node_id":"0.0-111.0","participant_id":"A12DY4HHG6MYF0"},{"rt":5408,"responses":"{\"Q0\":\"course\"}","trial_type":"survey-text","trial_index":112,"time_elapsed":308467,"internal_node_id":"0.0-112.0-0.0","participant_id":"A12DY4HHG6MYF0"},{"rt":null,"stimulus":"<p style=\"font-size: 48px;\">+</p>","key_press":null,"Name":"fixation","trial_type":"html-keyboard-response","trial_index":113,"time_elapsed":308969,"internal_node_id":"0.0-113.0","participant_id":"A12DY4HHG6MYF0"},{"rt":null,"stimulus":"stimuli/40.jpg","button_pressed":null,"name":"noRating","trial_type":"image-button-response","trial_index":114,"time_elapsed":313971,"internal_node_id":"0.0-114.0","participant_id":"A12DY4HHG6MYF0"},{"rt":600,"stimulus":"stimuli/40.jpg","button_pressed":"0","name":"valence","trial_type":"image-button-response","trial_index":115,"time_elapsed":314572,"internal_node_id":"0.0-115.0","participant_id":"A12DY4HHG6MYF0"},{"rt":1839,"response":"97","name":"rating","trial_type":"image-slider-response","trial_index":116,"time_elapsed":316411,"internal_node_id":"0.0-116.0","participant_id":"A12DY4HHG6MYF0"},{"rt":676,"stimulus":"stimuli/40.jpg","button_pressed":"2","name":"emotionType","trial_type":"image-button-response","trial_index":117,"time_elapsed":317088,"internal_node_id":"0.0-117.0","participant_id":"A12DY4HHG6MYF0"},{"rt":null,"stimulus":"<p style=\"font-size: 48px;\">+</p>","key_press":null,"Name":"fixation","trial_type":"html-keyboard-response","trial_index":118,"time_elapsed":318589,"internal_node_id":"0.0-118.0","participant_id":"A12DY4HHG6MYF0"},{"rt":null,"stimulus":"stimuli/39.jpg","button_pressed":null,"name":"noRating","trial_type":"image-button-response","trial_index":119,"time_elapsed":323590,"internal_node_id":"0.0-119.0","participant_id":"A12DY4HHG6MYF0"},{"rt":1192,"stimulus":"stimuli/39.jpg","button_pressed":"0","name":"valence","trial_type":"image-button-response","trial_index":120,"time_elapsed":324783,"internal_node_id":"0.0-120.0","participant_id":"A12DY4HHG6MYF0"},{"rt":2095,"response":"100","name":"rating","trial_type":"image-slider-response","trial_index":121,"time_elapsed":326879,"internal_node_id":"0.0-121.0","participant_id":"A12DY4HHG6MYF0"},{"rt":708,"stimulus":"stimuli/39.jpg","button_pressed":"0","name":"emotionType","trial_type":"image-button-response","trial_index":122,"time_elapsed":327587,"internal_node_id":"0.0-122.0","participant_id":"A12DY4HHG6MYF0"},{"rt":null,"stimulus":"<p style=\"font-size: 48px;\">+</p>","key_press":null,"Name":"fixation","trial_type":"html-keyboard-response","trial_index":123,"time_elapsed":328588,"internal_node_id":"0.0-123.0","participant_id":"A12DY4HHG6MYF0"},{"rt":null,"stimulus":"stimuli/49.jpg","button_pressed":null,"name":"noRating","trial_type":"image-button-response","trial_index":124,"time_elapsed":333590,"internal_node_id":"0.0-124.0","participant_id":"A12DY4HHG6MYF0"},{"rt":3937,"stimulus":"stimuli/49.jpg","button_pressed":"0","name":"valence","trial_type":"image-button-response","trial_index":125,"time_elapsed":337527,"internal_node_id":"0.0-125.0","participant_id":"A12DY4HHG6MYF0"},{"rt":3147,"response":"100","name":"rating","trial_type":"image-slider-response","trial_index":126,"time_elapsed":340676,"internal_node_id":"0.0-126.0","participant_id":"A12DY4HHG6MYF0"},{"rt":821,"stimulus":"stimuli/49.jpg","button_pressed":"0","name":"emotionType","trial_type":"image-button-response","trial_index":127,"time_elapsed":341497,"internal_node_id":"0.0-127.0","participant_id":"A12DY4HHG6MYF0"},{"rt":null,"stimulus":"<p style=\"font-size: 48px;\">+</p>","key_press":null,"Name":"fixation","trial_type":"html-keyboard-response","trial_index":128,"time_elapsed":342498,"internal_node_id":"0.0-128.0","participant_id":"A12DY4HHG6MYF0"},{"rt":null,"stimulus":"stimuli/13.jpg","button_pressed":null,"name":"noRating","trial_type":"image-button-response","trial_index":129,"time_elapsed":347500,"internal_node_id":"0.0-129.0","participant_id":"A12DY4HHG6MYF0"},{"rt":1577,"stimulus":"stimuli/13.jpg","button_pressed":"0","name":"valence","trial_type":"image-button-response","trial_index":130,"time_elapsed":349077,"internal_node_id":"0.0-130.0","participant_id":"A12DY4HHG6MYF0"},{"rt":3061,"response":"96","name":"rating","trial_type":"image-slider-response","trial_index":131,"time_elapsed":352139,"internal_node_id":"0.0-131.0","participant_id":"A12DY4HHG6MYF0"},{"rt":737,"stimulus":"stimuli/13.jpg","button_pressed":"0","name":"emotionType","trial_type":"image-button-response","trial_index":132,"time_elapsed":352877,"internal_node_id":"0.0-132.0","participant_id":"A12DY4HHG6MYF0"},{"rt":null,"stimulus":"<p style=\"font-size: 48px;\">+</p>","key_press":null,"Name":"fixation","trial_type":"html-keyboard-response","trial_index":133,"time_elapsed":353879,"internal_node_id":"0.0-133.0","participant_id":"A12DY4HHG6MYF0"},{"rt":null,"stimulus":"stimuli/54.jpg","button_pressed":null,"name":"noRating","trial_type":"image-button-response","trial_index":134,"time_elapsed":358880,"internal_node_id":"0.0-134.0","participant_id":"A12DY4HHG6MYF0"},{"rt":2843,"stimulus":"stimuli/54.jpg","button_pressed":"0","name":"valence","trial_type":"image-button-response","trial_index":135,"time_elapsed":361723,"internal_node_id":"0.0-135.0","participant_id":"A12DY4HHG6MYF0"},{"rt":2564,"response":"98","name":"rating","trial_type":"image-slider-response","trial_index":136,"time_elapsed":364287,"internal_node_id":"0.0-136.0","participant_id":"A12DY4HHG6MYF0"},{"rt":830,"stimulus":"stimuli/54.jpg","button_pressed":"1","name":"emotionType","trial_type":"image-button-response","trial_index":137,"time_elapsed":365117,"internal_node_id":"0.0-137.0","participant_id":"A12DY4HHG6MYF0"},{"rt":3092,"responses":"{\"Q0\":\"we\"}","trial_type":"survey-text","trial_index":138,"time_elapsed":368209,"internal_node_id":"0.0-138.0-0.0","participant_id":"A12DY4HHG6MYF0"},{"rt":null,"stimulus":"<p style=\"font-size: 48px;\">+</p>","key_press":null,"Name":"fixation","trial_type":"html-keyboard-response","trial_index":139,"time_elapsed":369211,"internal_node_id":"0.0-139.0","participant_id":"A12DY4HHG6MYF0"},{"rt":null,"stimulus":"stimuli/25.jpg","button_pressed":null,"name":"noRating","trial_type":"image-button-response","trial_index":140,"time_elapsed":374213,"internal_node_id":"0.0-140.0","participant_id":"A12DY4HHG6MYF0"},{"rt":2889,"stimulus":"stimuli/25.jpg","button_pressed":"0","name":"valence","trial_type":"image-button-response","trial_index":141,"time_elapsed":377103,"internal_node_id":"0.0-141.0","participant_id":"A12DY4HHG6MYF0"},{"rt":2090,"response":"98","name":"rating","trial_type":"image-slider-response","trial_index":142,"time_elapsed":379193,"internal_node_id":"0.0-142.0","participant_id":"A12DY4HHG6MYF0"},{"rt":760,"stimulus":"stimuli/25.jpg","button_pressed":"0","name":"emotionType","trial_type":"image-button-response","trial_index":143,"time_elapsed":379953,"internal_node_id":"0.0-143.0","participant_id":"A12DY4HHG6MYF0"},{"rt":null,"stimulus":"<p style=\"font-size: 48px;\">+</p>","key_press":null,"Name":"fixation","trial_type":"html-keyboard-response","trial_index":144,"time_elapsed":380455,"internal_node_id":"0.0-144.0","participant_id":"A12DY4HHG6MYF0"},{"rt":null,"stimulus":"stimuli/16.jpg","button_pressed":null,"name":"noRating","trial_type":"image-button-response","trial_index":145,"time_elapsed":385457,"internal_node_id":"0.0-145.0","participant_id":"A12DY4HHG6MYF0"},{"rt":3289,"stimulus":"stimuli/16.jpg","button_pressed":"0","name":"valence","trial_type":"image-button-response","trial_index":146,"time_elapsed":388747,"internal_node_id":"0.0-146.0","participant_id":"A12DY4HHG6MYF0"},{"rt":2514,"response":"98","name":"rating","trial_type":"image-slider-response","trial_index":147,"time_elapsed":391263,"internal_node_id":"0.0-147.0","participant_id":"A12DY4HHG6MYF0"},{"rt":751,"stimulus":"stimuli/16.jpg","button_pressed":"1","name":"emotionType","trial_type":"image-button-response","trial_index":148,"time_elapsed":392015,"internal_node_id":"0.0-148.0","participant_id":"A12DY4HHG6MYF0"},{"rt":null,"stimulus":"<p style=\"font-size: 48px;\">+</p>","key_press":null,"Name":"fixation","trial_type":"html-keyboard-response","trial_index":149,"time_elapsed":393016,"internal_node_id":"0.0-149.0","participant_id":"A12DY4HHG6MYF0"},{"rt":null,"stimulus":"stimuli/17.jpg","button_pressed":null,"name":"noRating","trial_type":"image-button-response","trial_index":150,"time_elapsed":398018,"internal_node_id":"0.0-150.0","participant_id":"A12DY4HHG6MYF0"},{"rt":4792,"stimulus":"stimuli/17.jpg","button_pressed":"0","name":"valence","trial_type":"image-button-response","trial_index":151,"time_elapsed":402812,"internal_node_id":"0.0-151.0","participant_id":"A12DY4HHG6MYF0"},{"rt":2345,"response":"99","name":"rating","trial_type":"image-slider-response","trial_index":152,"time_elapsed":405157,"internal_node_id":"0.0-152.0","participant_id":"A12DY4HHG6MYF0"},{"rt":675,"stimulus":"stimuli/17.jpg","button_pressed":"1","name":"emotionType","trial_type":"image-button-response","trial_index":153,"time_elapsed":405833,"internal_node_id":"0.0-153.0","participant_id":"A12DY4HHG6MYF0"},{"rt":null,"stimulus":"<p style=\"font-size: 48px;\">+</p>","key_press":null,"Name":"fixation","trial_type":"html-keyboard-response","trial_index":154,"time_elapsed":406834,"internal_node_id":"0.0-154.0","participant_id":"A12DY4HHG6MYF0"},{"rt":null,"stimulus":"stimuli/63.jpg","button_pressed":null,"name":"noRating","trial_type":"image-button-response","trial_index":155,"time_elapsed":411835,"internal_node_id":"0.0-155.0","participant_id":"A12DY4HHG6MYF0"},{"rt":1095,"stimulus":"stimuli/63.jpg","button_pressed":"2","name":"valence","trial_type":"image-button-response","trial_index":156,"time_elapsed":412932,"internal_node_id":"0.0-156.0","participant_id":"A12DY4HHG6MYF0"},{"rt":2119,"response":"98","name":"rating","trial_type":"image-slider-response","trial_index":157,"time_elapsed":415051,"internal_node_id":"0.0-157.0","participant_id":"A12DY4HHG6MYF0"},{"rt":2135,"stimulus":"stimuli/63.jpg","button_pressed":"2","name":"emotionType","trial_type":"image-button-response","trial_index":158,"time_elapsed":417188,"internal_node_id":"0.0-158.0","participant_id":"A12DY4HHG6MYF0"},{"rt":null,"stimulus":"<p style=\"font-size: 48px;\">+</p>","key_press":null,"Name":"fixation","trial_type":"html-keyboard-response","trial_index":159,"time_elapsed":417690,"internal_node_id":"0.0-159.0","participant_id":"A12DY4HHG6MYF0"},{"rt":null,"stimulus":"stimuli/29.jpg","button_pressed":null,"name":"noRating","trial_type":"image-button-response","trial_index":160,"time_elapsed":422691,"internal_node_id":"0.0-160.0","participant_id":"A12DY4HHG6MYF0"},{"rt":1673,"stimulus":"stimuli/29.jpg","button_pressed":"0","name":"valence","trial_type":"image-button-response","trial_index":161,"time_elapsed":424365,"internal_node_id":"0.0-161.0","participant_id":"A12DY4HHG6MYF0"},{"rt":1745,"response":"98","name":"rating","trial_type":"image-slider-response","trial_index":162,"time_elapsed":426111,"internal_node_id":"0.0-162.0","participant_id":"A12DY4HHG6MYF0"},{"rt":700,"stimulus":"stimuli/29.jpg","button_pressed":"0","name":"emotionType","trial_type":"image-button-response","trial_index":163,"time_elapsed":426811,"internal_node_id":"0.0-163.0","participant_id":"A12DY4HHG6MYF0"},{"rt":3789,"stimulus":"stimuli/ins/Slide8.JPG","button_pressed":"0","trial_type":"image-button-response","trial_index":164,"time_elapsed":430601,"internal_node_id":"0.0-164.0","participant_id":"A12DY4HHG6MYF0"}]