[{"rt":4016,"responses":"{\"Q0\":\"A14BO0JIQTNMOW\"}","trial_type":"survey-text","trial_index":0,"time_elapsed":4021,"internal_node_id":"0.0-0.0-0.0","participant_id":"A14BO0JIQTNMOW"},{"rt":1250,"stimulus":"stimuli/ins/Slide1.JPG","button_pressed":"0","Name":"instructions","trial_type":"image-button-response","trial_index":1,"time_elapsed":5271,"internal_node_id":"0.0-1.0","participant_id":"A14BO0JIQTNMOW"},{"rt":1578,"stimulus":"stimuli/ins/Slide2.JPG","button_pressed":"0","Name":"instructions","trial_type":"image-button-response","trial_index":2,"time_elapsed":6849,"internal_node_id":"0.0-2.0","participant_id":"A14BO0JIQTNMOW"},{"rt":1304,"stimulus":"stimuli/ins/Slide3.JPG","button_pressed":"0","Name":"instructions","trial_type":"image-button-response","trial_index":3,"time_elapsed":8153,"internal_node_id":"0.0-3.0","participant_id":"A14BO0JIQTNMOW"},{"rt":476,"stimulus":"stimuli/ins/Slide4.JPG","button_pressed":"0","Name":"instructions","trial_type":"image-button-response","trial_index":4,"time_elapsed":8629,"internal_node_id":"0.0-4.0","participant_id":"A14BO0JIQTNMOW"},{"rt":339,"stimulus":"stimuli/ins/Slide5.JPG","button_pressed":"0","Name":"instructions","trial_type":"image-button-response","trial_index":5,"time_elapsed":8968,"internal_node_id":"0.0-5.0","participant_id":"A14BO0JIQTNMOW"},{"rt":374,"stimulus":"stimuli/ins/Slide6.JPG","button_pressed":"0","Name":"instructions","trial_type":"image-button-response","trial_index":6,"time_elapsed":9352,"internal_node_id":"0.0-6.0","participant_id":"A14BO0JIQTNMOW"},{"rt":494,"stimulus":"stimuli/ins/Slide7.JPG","button_pressed":"0","Name":"instructions","trial_type":"image-button-response","trial_index":7,"time_elapsed":9856,"internal_node_id":"0.0-7.0","participant_id":"A14BO0JIQTNMOW"},{"rt":15449,"responses":"{\"Q0\":\"but\"}","trial_type":"survey-text","trial_index":8,"time_elapsed":25315,"internal_node_id":"0.0-8.0-0.0","participant_id":"A14BO0JIQTNMOW"},{"rt":null,"stimulus":"<p style=\"font-size: 48px;\">+</p>","key_press":null,"Name":"fixation","trial_type":"html-keyboard-response","trial_index":9,"time_elapsed":26315,"internal_node_id":"0.0-9.0","participant_id":"A14BO0JIQTNMOW"},{"rt":null,"stimulus":"stimuli/63.jpg","button_pressed":null,"name":"noRating","trial_type":"image-button-response","trial_index":10,"time_elapsed":31316,"internal_node_id":"0.0-10.0","participant_id":"A14BO0JIQTNMOW"},{"rt":5917,"stimulus":"stimuli/63.jpg","button_pressed":"0","name":"valence","trial_type":"image-button-response","trial_index":11,"time_elapsed":37235,"internal_node_id":"0.0-11.0","participant_id":"A14BO0JIQTNMOW"},{"rt":2878,"response":"69","name":"rating","trial_type":"image-slider-response","trial_index":12,"time_elapsed":40115,"internal_node_id":"0.0-12.0","participant_id":"A14BO0JIQTNMOW"},{"rt":5166,"stimulus":"stimuli/63.jpg","button_pressed":"0","name":"emotionType","trial_type":"image-button-response","trial_index":13,"time_elapsed":45283,"internal_node_id":"0.0-13.0","participant_id":"A14BO0JIQTNMOW"},{"rt":null,"stimulus":"<p style=\"font-size: 48px;\">+</p>","key_press":null,"Name":"fixation","trial_type":"html-keyboard-response","trial_index":14,"time_elapsed":45784,"internal_node_id":"0.0-14.0","participant_id":"A14BO0JIQTNMOW"},{"rt":null,"stimulus":"stimuli/50.jpg","button_pressed":null,"name":"noRating","trial_type":"image-button-response","trial_index":15,"time_elapsed":50784,"internal_node_id":"0.0-15.0","participant_id":"A14BO0JIQTNMOW"},{"rt":3409,"stimulus":"stimuli/50.jpg","button_pressed":"0","name":"valence","trial_type":"image-button-response","trial_index":16,"time_elapsed":54198,"internal_node_id":"0.0-16.0","participant_id":"A14BO0JIQTNMOW"},{"rt":2746,"response":"24","name":"rating","trial_type":"image-slider-response","trial_index":17,"time_elapsed":56947,"internal_node_id":"0.0-17.0","participant_id":"A14BO0JIQTNMOW"},{"rt":1038,"stimulus":"stimuli/50.jpg","button_pressed":"2","name":"emotionType","trial_type":"image-button-response","trial_index":18,"time_elapsed":57987,"internal_node_id":"0.0-18.0","participant_id":"A14BO0JIQTNMOW"},{"rt":null,"stimulus":"<p style=\"font-size: 48px;\">+</p>","key_press":null,"Name":"fixation","trial_type":"html-keyboard-response","trial_index":19,"time_elapsed":58489,"internal_node_id":"0.0-19.0","participant_id":"A14BO0JIQTNMOW"},{"rt":null,"stimulus":"stimuli/68.jpg","button_pressed":null,"name":"noRating","trial_type":"image-button-response","trial_index":20,"time_elapsed":63489,"internal_node_id":"0.0-20.0","participant_id":"A14BO0JIQTNMOW"},{"rt":1577,"stimulus":"stimuli/68.jpg","button_pressed":"0","name":"valence","trial_type":"image-button-response","trial_index":21,"time_elapsed":65068,"internal_node_id":"0.0-21.0","participant_id":"A14BO0JIQTNMOW"},{"rt":5118,"response":"21","name":"rating","trial_type":"image-slider-response","trial_index":22,"time_elapsed":70188,"internal_node_id":"0.0-22.0","participant_id":"A14BO0JIQTNMOW"},{"rt":2039,"stimulus":"stimuli/68.jpg","button_pressed":"3","name":"emotionType","trial_type":"image-button-response","trial_index":23,"time_elapsed":72229,"internal_node_id":"0.0-23.0","participant_id":"A14BO0JIQTNMOW"},{"rt":null,"stimulus":"<p style=\"font-size: 48px;\">+</p>","key_press":null,"Name":"fixation","trial_type":"html-keyboard-response","trial_index":24,"time_elapsed":73230,"internal_node_id":"0.0-24.0","participant_id":"A14BO0JIQTNMOW"},{"rt":null,"stimulus":"stimuli/19.jpg","button_pressed":null,"name":"noRating","trial_type":"image-button-response","trial_index":25,"time_elapsed":78231,"internal_node_id":"0.0-25.0","participant_id":"A14BO0JIQTNMOW"},{"rt":4716,"stimulus":"stimuli/19.jpg","button_pressed":"0","name":"valence","trial_type":"image-button-response","trial_index":26,"time_elapsed":82948,"internal_node_id":"0.0-26.0","participant_id":"A14BO0JIQTNMOW"},{"rt":3823,"response":"39","name":"rating","trial_type":"image-slider-response","trial_index":27,"time_elapsed":86772,"internal_node_id":"0.0-27.0","participant_id":"A14BO0JIQTNMOW"},{"rt":7007,"stimulus":"stimuli/19.jpg","button_pressed":"3","name":"emotionType","trial_type":"image-button-response","trial_index":28,"time_elapsed":93781,"internal_node_id":"0.0-28.0","participant_id":"A14BO0JIQTNMOW"},{"rt":null,"stimulus":"<p style=\"font-size: 48px;\">+</p>","key_press":null,"Name":"fixation","trial_type":"html-keyboard-response","trial_index":29,"time_elapsed":95281,"internal_node_id":"0.0-29.0","participant_id":"A14BO0JIQTNMOW"},{"rt":null,"stimulus":"stimuli/52.jpg","button_pressed":null,"name":"noRating","trial_type":"image-button-response","trial_index":30,"time_elapsed":100282,"internal_node_id":"0.0-30.0","participant_id":"A14BO0JIQTNMOW"},{"rt":8178,"stimulus":"stimuli/52.jpg","button_pressed":"0","name":"valence","trial_type":"image-button-response","trial_index":31,"time_elapsed":108462,"internal_node_id":"0.0-31.0","participant_id":"A14BO0JIQTNMOW"},{"rt":1669,"response":"30","name":"rating","trial_type":"image-slider-response","trial_index":32,"time_elapsed":110134,"internal_node_id":"0.0-32.0","participant_id":"A14BO0JIQTNMOW"},{"rt":982,"stimulus":"stimuli/52.jpg","button_pressed":"4","name":"emotionType","trial_type":"image-button-response","trial_index":33,"time_elapsed":111118,"internal_node_id":"0.0-33.0","participant_id":"A14BO0JIQTNMOW"},{"rt":4095,"responses":"{\"Q0\":\"rock\"}","trial_type":"survey-text","trial_index":34,"time_elapsed":115214,"internal_node_id":"0.0-34.0-0.0","participant_id":"A14BO0JIQTNMOW"},{"rt":null,"stimulus":"<p style=\"font-size: 48px;\">+</p>","key_press":null,"Name":"fixation","trial_type":"html-keyboard-response","trial_index":35,"time_elapsed":116215,"internal_node_id":"0.0-35.0","participant_id":"A14BO0JIQTNMOW"},{"rt":null,"stimulus":"stimuli/64.jpg","button_pressed":null,"name":"noRating","trial_type":"image-button-response","trial_index":36,"time_elapsed":121216,"internal_node_id":"0.0-36.0","participant_id":"A14BO0JIQTNMOW"},{"rt":25181,"stimulus":"stimuli/64.jpg","button_pressed":"2","name":"valence","trial_type":"image-button-response","trial_index":37,"time_elapsed":146399,"internal_node_id":"0.0-37.0","participant_id":"A14BO0JIQTNMOW"},{"rt":2822,"response":"52","name":"rating","trial_type":"image-slider-response","trial_index":38,"time_elapsed":149223,"internal_node_id":"0.0-38.0","participant_id":"A14BO0JIQTNMOW"},{"rt":14071,"stimulus":"stimuli/64.jpg","button_pressed":"1","name":"emotionType","trial_type":"image-button-response","trial_index":39,"time_elapsed":163296,"internal_node_id":"0.0-39.0","participant_id":"A14BO0JIQTNMOW"},{"rt":null,"stimulus":"<p style=\"font-size: 48px;\">+</p>","key_press":null,"Name":"fixation","trial_type":"html-keyboard-response","trial_index":40,"time_elapsed":164296,"internal_node_id":"0.0-40.0","participant_id":"A14BO0JIQTNMOW"},{"rt":null,"stimulus":"stimuli/23.jpg","button_pressed":null,"name":"noRating","trial_type":"image-button-response","trial_index":41,"time_elapsed":169297,"internal_node_id":"0.0-41.0","participant_id":"A14BO0JIQTNMOW"},{"rt":1780,"stimulus":"stimuli/23.jpg","button_pressed":"2","name":"valence","trial_type":"image-button-response","trial_index":42,"time_elapsed":171079,"internal_node_id":"0.0-42.0","participant_id":"A14BO0JIQTNMOW"},{"rt":2981,"response":"41","name":"rating","trial_type":"image-slider-response","trial_index":43,"time_elapsed":174064,"internal_node_id":"0.0-43.0","participant_id":"A14BO0JIQTNMOW"},{"rt":3070,"stimulus":"stimuli/23.jpg","button_pressed":"4","name":"emotionType","trial_type":"image-button-response","trial_index":44,"time_elapsed":177137,"internal_node_id":"0.0-44.0","participant_id":"A14BO0JIQTNMOW"},{"rt":null,"stimulus":"<p style=\"font-size: 48px;\">+</p>","key_press":null,"Name":"fixation","trial_type":"html-keyboard-response","trial_index":45,"time_elapsed":177637,"internal_node_id":"0.0-45.0","participant_id":"A14BO0JIQTNMOW"},{"rt":null,"stimulus":"stimuli/38.jpg","button_pressed":null,"name":"noRating","trial_type":"image-button-response","trial_index":46,"time_elapsed":182637,"internal_node_id":"0.0-46.0","participant_id":"A14BO0JIQTNMOW"},{"rt":5385,"stimulus":"stimuli/38.jpg","button_pressed":"1","name":"valence","trial_type":"image-button-response","trial_index":47,"time_elapsed":188024,"internal_node_id":"0.0-47.0","participant_id":"A14BO0JIQTNMOW"},{"rt":2597,"response":"25","name":"rating","trial_type":"image-slider-response","trial_index":48,"time_elapsed":190623,"internal_node_id":"0.0-48.0","participant_id":"A14BO0JIQTNMOW"},{"rt":4416,"stimulus":"stimuli/38.jpg","button_pressed":"5","name":"emotionType","trial_type":"image-button-response","trial_index":49,"time_elapsed":195041,"internal_node_id":"0.0-49.0","participant_id":"A14BO0JIQTNMOW"},{"rt":null,"stimulus":"<p style=\"font-size: 48px;\">+</p>","key_press":null,"Name":"fixation","trial_type":"html-keyboard-response","trial_index":50,"time_elapsed":196542,"internal_node_id":"0.0-50.0","participant_id":"A14BO0JIQTNMOW"},{"rt":null,"stimulus":"stimuli/18.jpg","button_pressed":null,"name":"noRating","trial_type":"image-button-response","trial_index":51,"time_elapsed":201543,"internal_node_id":"0.0-51.0","participant_id":"A14BO0JIQTNMOW"},{"rt":17352,"stimulus":"stimuli/18.jpg","button_pressed":"0","name":"valence","trial_type":"image-button-response","trial_index":52,"time_elapsed":218897,"internal_node_id":"0.0-52.0","participant_id":"A14BO0JIQTNMOW"},{"rt":2191,"response":"54","name":"rating","trial_type":"image-slider-response","trial_index":53,"time_elapsed":221090,"internal_node_id":"0.0-53.0","participant_id":"A14BO0JIQTNMOW"},{"rt":957,"stimulus":"stimuli/18.jpg","button_pressed":"4","name":"emotionType","trial_type":"image-button-response","trial_index":54,"time_elapsed":222049,"internal_node_id":"0.0-54.0","participant_id":"A14BO0JIQTNMOW"},{"rt":null,"stimulus":"<p style=\"font-size: 48px;\">+</p>","key_press":null,"Name":"fixation","trial_type":"html-keyboard-response","trial_index":55,"time_elapsed":223940,"internal_node_id":"0.0-55.0","participant_id":"A14BO0JIQTNMOW"},{"rt":null,"stimulus":"stimuli/34.jpg","button_pressed":null,"name":"noRating","trial_type":"image-button-response","trial_index":56,"time_elapsed":229722,"internal_node_id":"0.0-56.0","participant_id":"A14BO0JIQTNMOW"},{"rt":2015,"stimulus":"stimuli/34.jpg","button_pressed":"0","name":"valence","trial_type":"image-button-response","trial_index":57,"time_elapsed":231738,"internal_node_id":"0.0-57.0","participant_id":"A14BO0JIQTNMOW"},{"rt":4398,"response":"76","name":"rating","trial_type":"image-slider-response","trial_index":58,"time_elapsed":236138,"internal_node_id":"0.0-58.0","participant_id":"A14BO0JIQTNMOW"},{"rt":942,"stimulus":"stimuli/34.jpg","button_pressed":"4","name":"emotionType","trial_type":"image-button-response","trial_index":59,"time_elapsed":237082,"internal_node_id":"0.0-59.0","participant_id":"A14BO0JIQTNMOW"},{"rt":5094,"responses":"{\"Q0\":\"sky\"}","trial_type":"survey-text","trial_index":60,"time_elapsed":242178,"internal_node_id":"0.0-60.0-0.0","participant_id":"A14BO0JIQTNMOW"},{"rt":null,"stimulus":"<p style=\"font-size: 48px;\">+</p>","key_press":null,"Name":"fixation","trial_type":"html-keyboard-response","trial_index":61,"time_elapsed":243179,"internal_node_id":"0.0-61.0","participant_id":"A14BO0JIQTNMOW"},{"rt":null,"stimulus":"stimuli/60.jpg","button_pressed":null,"name":"noRating","trial_type":"image-button-response","trial_index":62,"time_elapsed":248180,"internal_node_id":"0.0-62.0","participant_id":"A14BO0JIQTNMOW"},{"rt":8652,"stimulus":"stimuli/60.jpg","button_pressed":"0","name":"valence","trial_type":"image-button-response","trial_index":63,"time_elapsed":256834,"internal_node_id":"0.0-63.0","participant_id":"A14BO0JIQTNMOW"},{"rt":2557,"response":"82","name":"rating","trial_type":"image-slider-response","trial_index":64,"time_elapsed":259394,"internal_node_id":"0.0-64.0","participant_id":"A14BO0JIQTNMOW"},{"rt":2199,"stimulus":"stimuli/60.jpg","button_pressed":"1","name":"emotionType","trial_type":"image-button-response","trial_index":65,"time_elapsed":261595,"internal_node_id":"0.0-65.0","participant_id":"A14BO0JIQTNMOW"},{"rt":null,"stimulus":"<p style=\"font-size: 48px;\">+</p>","key_press":null,"Name":"fixation","trial_type":"html-keyboard-response","trial_index":66,"time_elapsed":262596,"internal_node_id":"0.0-66.0","participant_id":"A14BO0JIQTNMOW"},{"rt":null,"stimulus":"stimuli/12.jpg","button_pressed":null,"name":"noRating","trial_type":"image-button-response","trial_index":67,"time_elapsed":267597,"internal_node_id":"0.0-67.0","participant_id":"A14BO0JIQTNMOW"},{"rt":1387,"stimulus":"stimuli/12.jpg","button_pressed":"2","name":"valence","trial_type":"image-button-response","trial_index":68,"time_elapsed":268987,"internal_node_id":"0.0-68.0","participant_id":"A14BO0JIQTNMOW"},{"rt":2878,"response":"88","name":"rating","trial_type":"image-slider-response","trial_index":69,"time_elapsed":271867,"internal_node_id":"0.0-69.0","participant_id":"A14BO0JIQTNMOW"},{"rt":1734,"stimulus":"stimuli/12.jpg","button_pressed":"0","name":"emotionType","trial_type":"image-button-response","trial_index":70,"time_elapsed":273603,"internal_node_id":"0.0-70.0","participant_id":"A14BO0JIQTNMOW"},{"rt":null,"stimulus":"<p style=\"font-size: 48px;\">+</p>","key_press":null,"Name":"fixation","trial_type":"html-keyboard-response","trial_index":71,"time_elapsed":274604,"internal_node_id":"0.0-71.0","participant_id":"A14BO0JIQTNMOW"},{"rt":null,"stimulus":"stimuli/28.jpg","button_pressed":null,"name":"noRating","trial_type":"image-button-response","trial_index":72,"time_elapsed":279605,"internal_node_id":"0.0-72.0","participant_id":"A14BO0JIQTNMOW"},{"rt":2269,"stimulus":"stimuli/28.jpg","button_pressed":"0","name":"valence","trial_type":"image-button-response","trial_index":73,"time_elapsed":281876,"internal_node_id":"0.0-73.0","participant_id":"A14BO0JIQTNMOW"},{"rt":2598,"response":"85","name":"rating","trial_type":"image-slider-response","trial_index":74,"time_elapsed":284476,"internal_node_id":"0.0-74.0","participant_id":"A14BO0JIQTNMOW"},{"rt":1494,"stimulus":"stimuli/28.jpg","button_pressed":"0","name":"emotionType","trial_type":"image-button-response","trial_index":75,"time_elapsed":285972,"internal_node_id":"0.0-75.0","participant_id":"A14BO0JIQTNMOW"},{"rt":null,"stimulus":"<p style=\"font-size: 48px;\">+</p>","key_press":null,"Name":"fixation","trial_type":"html-keyboard-response","trial_index":76,"time_elapsed":286973,"internal_node_id":"0.0-76.0","participant_id":"A14BO0JIQTNMOW"},{"rt":null,"stimulus":"stimuli/42.jpg","button_pressed":null,"name":"noRating","trial_type":"image-button-response","trial_index":77,"time_elapsed":291973,"internal_node_id":"0.0-77.0","participant_id":"A14BO0JIQTNMOW"},{"rt":1492,"stimulus":"stimuli/42.jpg","button_pressed":"0","name":"valence","trial_type":"image-button-response","trial_index":78,"time_elapsed":293467,"internal_node_id":"0.0-78.0","participant_id":"A14BO0JIQTNMOW"},{"rt":2390,"response":"91","name":"rating","trial_type":"image-slider-response","trial_index":79,"time_elapsed":295859,"internal_node_id":"0.0-79.0","participant_id":"A14BO0JIQTNMOW"},{"rt":679,"stimulus":"stimuli/42.jpg","button_pressed":"1","name":"emotionType","trial_type":"image-button-response","trial_index":80,"time_elapsed":296542,"internal_node_id":"0.0-80.0","participant_id":"A14BO0JIQTNMOW"},{"rt":null,"stimulus":"<p style=\"font-size: 48px;\">+</p>","key_press":null,"Name":"fixation","trial_type":"html-keyboard-response","trial_index":81,"time_elapsed":297043,"internal_node_id":"0.0-81.0","participant_id":"A14BO0JIQTNMOW"},{"rt":null,"stimulus":"stimuli/58.jpg","button_pressed":null,"name":"noRating","trial_type":"image-button-response","trial_index":82,"time_elapsed":302043,"internal_node_id":"0.0-82.0","participant_id":"A14BO0JIQTNMOW"},{"rt":18800,"stimulus":"stimuli/58.jpg","button_pressed":"0","name":"valence","trial_type":"image-button-response","trial_index":83,"time_elapsed":320844,"internal_node_id":"0.0-83.0","participant_id":"A14BO0JIQTNMOW"},{"rt":3031,"response":"68","name":"rating","trial_type":"image-slider-response","trial_index":84,"time_elapsed":323876,"internal_node_id":"0.0-84.0","participant_id":"A14BO0JIQTNMOW"},{"rt":1175,"stimulus":"stimuli/58.jpg","button_pressed":"1","name":"emotionType","trial_type":"image-button-response","trial_index":85,"time_elapsed":325053,"internal_node_id":"0.0-85.0","participant_id":"A14BO0JIQTNMOW"},{"rt":3511,"responses":"{\"Q0\":\"our\"}","trial_type":"survey-text","trial_index":86,"time_elapsed":328565,"internal_node_id":"0.0-86.0-0.0","participant_id":"A14BO0JIQTNMOW"},{"rt":null,"stimulus":"<p style=\"font-size: 48px;\">+</p>","key_press":null,"Name":"fixation","trial_type":"html-keyboard-response","trial_index":87,"time_elapsed":330066,"internal_node_id":"0.0-87.0","participant_id":"A14BO0JIQTNMOW"},{"rt":null,"stimulus":"stimuli/26.jpg","button_pressed":null,"name":"noRating","trial_type":"image-button-response","trial_index":88,"time_elapsed":335066,"internal_node_id":"0.0-88.0","participant_id":"A14BO0JIQTNMOW"},{"rt":6697,"stimulus":"stimuli/26.jpg","button_pressed":"0","name":"valence","trial_type":"image-button-response","trial_index":89,"time_elapsed":341765,"internal_node_id":"0.0-89.0","participant_id":"A14BO0JIQTNMOW"},{"rt":2590,"response":"90","name":"rating","trial_type":"image-slider-response","trial_index":90,"time_elapsed":344357,"internal_node_id":"0.0-90.0","participant_id":"A14BO0JIQTNMOW"},{"rt":1422,"stimulus":"stimuli/26.jpg","button_pressed":"0","name":"emotionType","trial_type":"image-button-response","trial_index":91,"time_elapsed":345782,"internal_node_id":"0.0-91.0","participant_id":"A14BO0JIQTNMOW"},{"rt":null,"stimulus":"<p style=\"font-size: 48px;\">+</p>","key_press":null,"Name":"fixation","trial_type":"html-keyboard-response","trial_index":92,"time_elapsed":346282,"internal_node_id":"0.0-92.0","participant_id":"A14BO0JIQTNMOW"},{"rt":null,"stimulus":"stimuli/10.jpg","button_pressed":null,"name":"noRating","trial_type":"image-button-response","trial_index":93,"time_elapsed":351282,"internal_node_id":"0.0-93.0","participant_id":"A14BO0JIQTNMOW"},{"rt":2277,"stimulus":"stimuli/10.jpg","button_pressed":"0","name":"valence","trial_type":"image-button-response","trial_index":94,"time_elapsed":353562,"internal_node_id":"0.0-94.0","participant_id":"A14BO0JIQTNMOW"},{"rt":1873,"response":"100","name":"rating","trial_type":"image-slider-response","trial_index":95,"time_elapsed":355438,"internal_node_id":"0.0-95.0","participant_id":"A14BO0JIQTNMOW"},{"rt":1438,"stimulus":"stimuli/10.jpg","button_pressed":"5","name":"emotionType","trial_type":"image-button-response","trial_index":96,"time_elapsed":356878,"internal_node_id":"0.0-96.0","participant_id":"A14BO0JIQTNMOW"},{"rt":null,"stimulus":"<p style=\"font-size: 48px;\">+</p>","key_press":null,"Name":"fixation","trial_type":"html-keyboard-response","trial_index":97,"time_elapsed":357879,"internal_node_id":"0.0-97.0","participant_id":"A14BO0JIQTNMOW"},{"rt":null,"stimulus":"stimuli/8.jpg","button_pressed":null,"name":"noRating","trial_type":"image-button-response","trial_index":98,"time_elapsed":362880,"internal_node_id":"0.0-98.0","participant_id":"A14BO0JIQTNMOW"},{"rt":1388,"stimulus":"stimuli/8.jpg","button_pressed":"0","name":"valence","trial_type":"image-button-response","trial_index":99,"time_elapsed":364269,"internal_node_id":"0.0-99.0","participant_id":"A14BO0JIQTNMOW"},{"rt":3286,"response":"96","name":"rating","trial_type":"image-slider-response","trial_index":100,"time_elapsed":367557,"internal_node_id":"0.0-100.0","participant_id":"A14BO0JIQTNMOW"},{"rt":1327,"stimulus":"stimuli/8.jpg","button_pressed":"0","name":"emotionType","trial_type":"image-button-response","trial_index":101,"time_elapsed":368887,"internal_node_id":"0.0-101.0","participant_id":"A14BO0JIQTNMOW"},{"rt":null,"stimulus":"<p style=\"font-size: 48px;\">+</p>","key_press":null,"Name":"fixation","trial_type":"html-keyboard-response","trial_index":102,"time_elapsed":370387,"internal_node_id":"0.0-102.0","participant_id":"A14BO0JIQTNMOW"},{"rt":null,"stimulus":"stimuli/5.jpg","button_pressed":null,"name":"noRating","trial_type":"image-button-response","trial_index":103,"time_elapsed":375388,"internal_node_id":"0.0-103.0","participant_id":"A14BO0JIQTNMOW"},{"rt":1608,"stimulus":"stimuli/5.jpg","button_pressed":"1","name":"valence","trial_type":"image-button-response","trial_index":104,"time_elapsed":376998,"internal_node_id":"0.0-104.0","participant_id":"A14BO0JIQTNMOW"},{"rt":2029,"response":"100","name":"rating","trial_type":"image-slider-response","trial_index":105,"time_elapsed":379030,"internal_node_id":"0.0-105.0","participant_id":"A14BO0JIQTNMOW"},{"rt":1454,"stimulus":"stimuli/5.jpg","button_pressed":"2","name":"emotionType","trial_type":"image-button-response","trial_index":106,"time_elapsed":380486,"internal_node_id":"0.0-106.0","participant_id":"A14BO0JIQTNMOW"},{"rt":null,"stimulus":"<p style=\"font-size: 48px;\">+</p>","key_press":null,"Name":"fixation","trial_type":"html-keyboard-response","trial_index":107,"time_elapsed":381487,"internal_node_id":"0.0-107.0","participant_id":"A14BO0JIQTNMOW"},{"rt":null,"stimulus":"stimuli/22.jpg","button_pressed":null,"name":"noRating","trial_type":"image-button-response","trial_index":108,"time_elapsed":386956,"internal_node_id":"0.0-108.0","participant_id":"A14BO0JIQTNMOW"},{"rt":17458,"stimulus":"stimuli/22.jpg","button_pressed":"0","name":"valence","trial_type":"image-button-response","trial_index":109,"time_elapsed":404416,"internal_node_id":"0.0-109.0","participant_id":"A14BO0JIQTNMOW"},{"rt":1870,"response":"87","name":"rating","trial_type":"image-slider-response","trial_index":110,"time_elapsed":406287,"internal_node_id":"0.0-110.0","participant_id":"A14BO0JIQTNMOW"},{"rt":1919,"stimulus":"stimuli/22.jpg","button_pressed":"2","name":"emotionType","trial_type":"image-button-response","trial_index":111,"time_elapsed":408208,"internal_node_id":"0.0-111.0","participant_id":"A14BO0JIQTNMOW"},{"rt":4270,"responses":"{\"Q0\":\"course\"}","trial_type":"survey-text","trial_index":112,"time_elapsed":412480,"internal_node_id":"0.0-112.0-0.0","participant_id":"A14BO0JIQTNMOW"},{"rt":null,"stimulus":"<p style=\"font-size: 48px;\">+</p>","key_press":null,"Name":"fixation","trial_type":"html-keyboard-response","trial_index":113,"time_elapsed":413481,"internal_node_id":"0.0-113.0","participant_id":"A14BO0JIQTNMOW"},{"rt":null,"stimulus":"stimuli/69.jpg","button_pressed":null,"name":"noRating","trial_type":"image-button-response","trial_index":114,"time_elapsed":418482,"internal_node_id":"0.0-114.0","participant_id":"A14BO0JIQTNMOW"},{"rt":795,"stimulus":"stimuli/69.jpg","button_pressed":"0","name":"valence","trial_type":"image-button-response","trial_index":115,"time_elapsed":419279,"internal_node_id":"0.0-115.0","participant_id":"A14BO0JIQTNMOW"},{"rt":2951,"response":"66","name":"rating","trial_type":"image-slider-response","trial_index":116,"time_elapsed":422232,"internal_node_id":"0.0-116.0","participant_id":"A14BO0JIQTNMOW"},{"rt":1118,"stimulus":"stimuli/69.jpg","button_pressed":"2","name":"emotionType","trial_type":"image-button-response","trial_index":117,"time_elapsed":423352,"internal_node_id":"0.0-117.0","participant_id":"A14BO0JIQTNMOW"},{"rt":null,"stimulus":"<p style=\"font-size: 48px;\">+</p>","key_press":null,"Name":"fixation","trial_type":"html-keyboard-response","trial_index":118,"time_elapsed":424853,"internal_node_id":"0.0-118.0","participant_id":"A14BO0JIQTNMOW"},{"rt":null,"stimulus":"stimuli/55.jpg","button_pressed":null,"name":"noRating","trial_type":"image-button-response","trial_index":119,"time_elapsed":429854,"internal_node_id":"0.0-119.0","participant_id":"A14BO0JIQTNMOW"},{"rt":1255,"stimulus":"stimuli/55.jpg","button_pressed":"0","name":"valence","trial_type":"image-button-response","trial_index":120,"time_elapsed":431111,"internal_node_id":"0.0-120.0","participant_id":"A14BO0JIQTNMOW"},{"rt":3102,"response":"83","name":"rating","trial_type":"image-slider-response","trial_index":121,"time_elapsed":434215,"internal_node_id":"0.0-121.0","participant_id":"A14BO0JIQTNMOW"},{"rt":5663,"stimulus":"stimuli/55.jpg","button_pressed":"0","name":"emotionType","trial_type":"image-button-response","trial_index":122,"time_elapsed":439880,"internal_node_id":"0.0-122.0","participant_id":"A14BO0JIQTNMOW"},{"rt":null,"stimulus":"<p style=\"font-size: 48px;\">+</p>","key_press":null,"Name":"fixation","trial_type":"html-keyboard-response","trial_index":123,"time_elapsed":440881,"internal_node_id":"0.0-123.0","participant_id":"A14BO0JIQTNMOW"},{"rt":null,"stimulus":"stimuli/13.jpg","button_pressed":null,"name":"noRating","trial_type":"image-button-response","trial_index":124,"time_elapsed":445882,"internal_node_id":"0.0-124.0","participant_id":"A14BO0JIQTNMOW"},{"rt":1468,"stimulus":"stimuli/13.jpg","button_pressed":"0","name":"valence","trial_type":"image-button-response","trial_index":125,"time_elapsed":447352,"internal_node_id":"0.0-125.0","participant_id":"A14BO0JIQTNMOW"},{"rt":2174,"response":"79","name":"rating","trial_type":"image-slider-response","trial_index":126,"time_elapsed":449527,"internal_node_id":"0.0-126.0","participant_id":"A14BO0JIQTNMOW"},{"rt":726,"stimulus":"stimuli/13.jpg","button_pressed":"1","name":"emotionType","trial_type":"image-button-response","trial_index":127,"time_elapsed":450256,"internal_node_id":"0.0-127.0","participant_id":"A14BO0JIQTNMOW"},{"rt":null,"stimulus":"<p style=\"font-size: 48px;\">+</p>","key_press":null,"Name":"fixation","trial_type":"html-keyboard-response","trial_index":128,"time_elapsed":451256,"internal_node_id":"0.0-128.0","participant_id":"A14BO0JIQTNMOW"},{"rt":null,"stimulus":"stimuli/54.jpg","button_pressed":null,"name":"noRating","trial_type":"image-button-response","trial_index":129,"time_elapsed":456258,"internal_node_id":"0.0-129.0","participant_id":"A14BO0JIQTNMOW"},{"rt":1788,"stimulus":"stimuli/54.jpg","button_pressed":"0","name":"valence","trial_type":"image-button-response","trial_index":130,"time_elapsed":458048,"internal_node_id":"0.0-130.0","participant_id":"A14BO0JIQTNMOW"},{"rt":2733,"response":"72","name":"rating","trial_type":"image-slider-response","trial_index":131,"time_elapsed":460784,"internal_node_id":"0.0-131.0","participant_id":"A14BO0JIQTNMOW"},{"rt":2326,"stimulus":"stimuli/54.jpg","button_pressed":"1","name":"emotionType","trial_type":"image-button-response","trial_index":132,"time_elapsed":463112,"internal_node_id":"0.0-132.0","participant_id":"A14BO0JIQTNMOW"},{"rt":null,"stimulus":"<p style=\"font-size: 48px;\">+</p>","key_press":null,"Name":"fixation","trial_type":"html-keyboard-response","trial_index":133,"time_elapsed":464113,"internal_node_id":"0.0-133.0","participant_id":"A14BO0JIQTNMOW"},{"rt":null,"stimulus":"stimuli/9.jpg","button_pressed":null,"name":"noRating","trial_type":"image-button-response","trial_index":134,"time_elapsed":469114,"internal_node_id":"0.0-134.0","participant_id":"A14BO0JIQTNMOW"},{"rt":3236,"stimulus":"stimuli/9.jpg","button_pressed":"0","name":"valence","trial_type":"image-button-response","trial_index":135,"time_elapsed":472352,"internal_node_id":"0.0-135.0","participant_id":"A14BO0JIQTNMOW"},{"rt":2446,"response":"71","name":"rating","trial_type":"image-slider-response","trial_index":136,"time_elapsed":474801,"internal_node_id":"0.0-136.0","participant_id":"A14BO0JIQTNMOW"},{"rt":934,"stimulus":"stimuli/9.jpg","button_pressed":"2","name":"emotionType","trial_type":"image-button-response","trial_index":137,"time_elapsed":475737,"internal_node_id":"0.0-137.0","participant_id":"A14BO0JIQTNMOW"},{"rt":5206,"responses":"{\"Q0\":\"we\"}","trial_type":"survey-text","trial_index":138,"time_elapsed":480945,"internal_node_id":"0.0-138.0-0.0","participant_id":"A14BO0JIQTNMOW"},{"rt":null,"stimulus":"<p style=\"font-size: 48px;\">+</p>","key_press":null,"Name":"fixation","trial_type":"html-keyboard-response","trial_index":139,"time_elapsed":482445,"internal_node_id":"0.0-139.0","participant_id":"A14BO0JIQTNMOW"},{"rt":null,"stimulus":"stimuli/20.jpg","button_pressed":null,"name":"noRating","trial_type":"image-button-response","trial_index":140,"time_elapsed":487446,"internal_node_id":"0.0-140.0","participant_id":"A14BO0JIQTNMOW"},{"rt":9096,"stimulus":"stimuli/20.jpg","button_pressed":"1","name":"valence","trial_type":"image-button-response","trial_index":141,"time_elapsed":496544,"internal_node_id":"0.0-141.0","participant_id":"A14BO0JIQTNMOW"},{"rt":2687,"response":"84","name":"rating","trial_type":"image-slider-response","trial_index":142,"time_elapsed":499232,"internal_node_id":"0.0-142.0","participant_id":"A14BO0JIQTNMOW"},{"rt":950,"stimulus":"stimuli/20.jpg","button_pressed":"3","name":"emotionType","trial_type":"image-button-response","trial_index":143,"time_elapsed":500184,"internal_node_id":"0.0-143.0","participant_id":"A14BO0JIQTNMOW"},{"rt":null,"stimulus":"<p style=\"font-size: 48px;\">+</p>","key_press":null,"Name":"fixation","trial_type":"html-keyboard-response","trial_index":144,"time_elapsed":501185,"internal_node_id":"0.0-144.0","participant_id":"A14BO0JIQTNMOW"},{"rt":null,"stimulus":"stimuli/7.jpg","button_pressed":null,"name":"noRating","trial_type":"image-button-response","trial_index":145,"time_elapsed":506186,"internal_node_id":"0.0-145.0","participant_id":"A14BO0JIQTNMOW"},{"rt":4301,"stimulus":"stimuli/7.jpg","button_pressed":"0","name":"valence","trial_type":"image-button-response","trial_index":146,"time_elapsed":510489,"internal_node_id":"0.0-146.0","participant_id":"A14BO0JIQTNMOW"},{"rt":2918,"response":"93","name":"rating","trial_type":"image-slider-response","trial_index":147,"time_elapsed":513409,"internal_node_id":"0.0-147.0","participant_id":"A14BO0JIQTNMOW"},{"rt":1686,"stimulus":"stimuli/7.jpg","button_pressed":"0","name":"emotionType","trial_type":"image-button-response","trial_index":148,"time_elapsed":515097,"internal_node_id":"0.0-148.0","participant_id":"A14BO0JIQTNMOW"},{"rt":null,"stimulus":"<p style=\"font-size: 48px;\">+</p>","key_press":null,"Name":"fixation","trial_type":"html-keyboard-response","trial_index":149,"time_elapsed":516598,"internal_node_id":"0.0-149.0","participant_id":"A14BO0JIQTNMOW"},{"rt":null,"stimulus":"stimuli/59.jpg","button_pressed":null,"name":"noRating","trial_type":"image-button-response","trial_index":150,"time_elapsed":521599,"internal_node_id":"0.0-150.0","participant_id":"A14BO0JIQTNMOW"},{"rt":13952,"stimulus":"stimuli/59.jpg","button_pressed":"0","name":"valence","trial_type":"image-button-response","trial_index":151,"time_elapsed":535553,"internal_node_id":"0.0-151.0","participant_id":"A14BO0JIQTNMOW"},{"rt":2590,"response":"72","name":"rating","trial_type":"image-slider-response","trial_index":152,"time_elapsed":538145,"internal_node_id":"0.0-152.0","participant_id":"A14BO0JIQTNMOW"},{"rt":4598,"stimulus":"stimuli/59.jpg","button_pressed":"0","name":"emotionType","trial_type":"image-button-response","trial_index":153,"time_elapsed":542745,"internal_node_id":"0.0-153.0","participant_id":"A14BO0JIQTNMOW"},{"rt":null,"stimulus":"<p style=\"font-size: 48px;\">+</p>","key_press":null,"Name":"fixation","trial_type":"html-keyboard-response","trial_index":154,"time_elapsed":543746,"internal_node_id":"0.0-154.0","participant_id":"A14BO0JIQTNMOW"},{"rt":null,"stimulus":"stimuli/11.jpg","button_pressed":null,"name":"noRating","trial_type":"image-button-response","trial_index":155,"time_elapsed":548948,"internal_node_id":"0.0-155.0","participant_id":"A14BO0JIQTNMOW"},{"rt":1787,"stimulus":"stimuli/11.jpg","button_pressed":"0","name":"valence","trial_type":"image-button-response","trial_index":156,"time_elapsed":550738,"internal_node_id":"0.0-156.0","participant_id":"A14BO0JIQTNMOW"},{"rt":1718,"response":"80","name":"rating","trial_type":"image-slider-response","trial_index":157,"time_elapsed":552458,"internal_node_id":"0.0-157.0","participant_id":"A14BO0JIQTNMOW"},{"rt":742,"stimulus":"stimuli/11.jpg","button_pressed":"1","name":"emotionType","trial_type":"image-button-response","trial_index":158,"time_elapsed":553202,"internal_node_id":"0.0-158.0","participant_id":"A14BO0JIQTNMOW"},{"rt":null,"stimulus":"<p style=\"font-size: 48px;\">+</p>","key_press":null,"Name":"fixation","trial_type":"html-keyboard-response","trial_index":159,"time_elapsed":553703,"internal_node_id":"0.0-159.0","participant_id":"A14BO0JIQTNMOW"},{"rt":null,"stimulus":"stimuli/21.jpg","button_pressed":null,"name":"noRating","trial_type":"image-button-response","trial_index":160,"time_elapsed":558704,"internal_node_id":"0.0-160.0","participant_id":"A14BO0JIQTNMOW"},{"rt":1216,"stimulus":"stimuli/21.jpg","button_pressed":"0","name":"valence","trial_type":"image-button-response","trial_index":161,"time_elapsed":559922,"internal_node_id":"0.0-161.0","participant_id":"A14BO0JIQTNMOW"},{"rt":2175,"response":"56","name":"rating","trial_type":"image-slider-response","trial_index":162,"time_elapsed":562099,"internal_node_id":"0.0-162.0","participant_id":"A14BO0JIQTNMOW"},{"rt":1182,"stimulus":"stimuli/21.jpg","button_pressed":"0","name":"emotionType","trial_type":"image-button-response","trial_index":163,"time_elapsed":563283,"internal_node_id":"0.0-163.0","participant_id":"A14BO0JIQTNMOW"},{"rt":1454,"stimulus":"stimuli/ins/Slide8.JPG","button_pressed":"0","trial_type":"image-button-response","trial_index":164,"time_elapsed":564738,"internal_node_id":"0.0-164.0","participant_id":"A14BO0JIQTNMOW"}]