[{"rt":10502,"responses":"{\"Q0\":\"A175X5H642OD4W\"}","trial_type":"survey-text","trial_index":0,"time_elapsed":10505,"internal_node_id":"0.0-0.0-0.0","participant_id":"A175X5H642OD4W"},{"rt":2428,"stimulus":"stimuli/ins/Slide1.JPG","button_pressed":"0","Name":"instructions","trial_type":"image-button-response","trial_index":1,"time_elapsed":12936,"internal_node_id":"0.0-1.0","participant_id":"A175X5H642OD4W"},{"rt":3026,"stimulus":"stimuli/ins/Slide2.JPG","button_pressed":"0","Name":"instructions","trial_type":"image-button-response","trial_index":2,"time_elapsed":15964,"internal_node_id":"0.0-2.0","participant_id":"A175X5H642OD4W"},{"rt":5824,"stimulus":"stimuli/ins/Slide3.JPG","button_pressed":"0","Name":"instructions","trial_type":"image-button-response","trial_index":3,"time_elapsed":21789,"internal_node_id":"0.0-3.0","participant_id":"A175X5H642OD4W"},{"rt":4586,"stimulus":"stimuli/ins/Slide4.JPG","button_pressed":"0","Name":"instructions","trial_type":"image-button-response","trial_index":4,"time_elapsed":26377,"internal_node_id":"0.0-4.0","participant_id":"A175X5H642OD4W"},{"rt":3791,"stimulus":"stimuli/ins/Slide5.JPG","button_pressed":"0","Name":"instructions","trial_type":"image-button-response","trial_index":5,"time_elapsed":30169,"internal_node_id":"0.0-5.0","participant_id":"A175X5H642OD4W"},{"rt":2867,"stimulus":"stimuli/ins/Slide6.JPG","button_pressed":"0","Name":"instructions","trial_type":"image-button-response","trial_index":6,"time_elapsed":33038,"internal_node_id":"0.0-6.0","participant_id":"A175X5H642OD4W"},{"rt":1194,"stimulus":"stimuli/ins/Slide7.JPG","button_pressed":"0","Name":"instructions","trial_type":"image-button-response","trial_index":7,"time_elapsed":34232,"internal_node_id":"0.0-7.0","participant_id":"A175X5H642OD4W"},{"rt":11219,"responses":"{\"Q0\":\"but\"}","trial_type":"survey-text","trial_index":8,"time_elapsed":45453,"internal_node_id":"0.0-8.0-0.0","participant_id":"A175X5H642OD4W"},{"rt":null,"stimulus":"<p style=\"font-size: 48px;\">+</p>","key_press":null,"Name":"fixation","trial_type":"html-keyboard-response","trial_index":9,"time_elapsed":46467,"internal_node_id":"0.0-9.0","participant_id":"A175X5H642OD4W"},{"rt":null,"stimulus":"stimuli/41.jpg","button_pressed":null,"name":"noRating","trial_type":"image-button-response","trial_index":10,"time_elapsed":51487,"internal_node_id":"0.0-10.0","participant_id":"A175X5H642OD4W"},{"rt":1395,"stimulus":"stimuli/41.jpg","button_pressed":"0","name":"valence","trial_type":"image-button-response","trial_index":11,"time_elapsed":52882,"internal_node_id":"0.0-11.0","participant_id":"A175X5H642OD4W"},{"rt":3674,"response":"86","name":"rating","trial_type":"image-slider-response","trial_index":12,"time_elapsed":56559,"internal_node_id":"0.0-12.0","participant_id":"A175X5H642OD4W"},{"rt":1916,"stimulus":"stimuli/41.jpg","button_pressed":"0","name":"emotionType","trial_type":"image-button-response","trial_index":13,"time_elapsed":58476,"internal_node_id":"0.0-13.0","participant_id":"A175X5H642OD4W"},{"rt":null,"stimulus":"<p style=\"font-size: 48px;\">+</p>","key_press":null,"Name":"fixation","trial_type":"html-keyboard-response","trial_index":14,"time_elapsed":59490,"internal_node_id":"0.0-14.0","participant_id":"A175X5H642OD4W"},{"rt":null,"stimulus":"stimuli/3.jpg","button_pressed":null,"name":"noRating","trial_type":"image-button-response","trial_index":15,"time_elapsed":64494,"internal_node_id":"0.0-15.0","participant_id":"A175X5H642OD4W"},{"rt":1246,"stimulus":"stimuli/3.jpg","button_pressed":"0","name":"valence","trial_type":"image-button-response","trial_index":16,"time_elapsed":65742,"internal_node_id":"0.0-16.0","participant_id":"A175X5H642OD4W"},{"rt":3170,"response":"82","name":"rating","trial_type":"image-slider-response","trial_index":17,"time_elapsed":68914,"internal_node_id":"0.0-17.0","participant_id":"A175X5H642OD4W"},{"rt":2538,"stimulus":"stimuli/3.jpg","button_pressed":"1","name":"emotionType","trial_type":"image-button-response","trial_index":18,"time_elapsed":71453,"internal_node_id":"0.0-18.0","participant_id":"A175X5H642OD4W"},{"rt":null,"stimulus":"<p style=\"font-size: 48px;\">+</p>","key_press":null,"Name":"fixation","trial_type":"html-keyboard-response","trial_index":19,"time_elapsed":72470,"internal_node_id":"0.0-19.0","participant_id":"A175X5H642OD4W"},{"rt":null,"stimulus":"stimuli/26.jpg","button_pressed":null,"name":"noRating","trial_type":"image-button-response","trial_index":20,"time_elapsed":77481,"internal_node_id":"0.0-20.0","participant_id":"A175X5H642OD4W"},{"rt":1573,"stimulus":"stimuli/26.jpg","button_pressed":"0","name":"valence","trial_type":"image-button-response","trial_index":21,"time_elapsed":79055,"internal_node_id":"0.0-21.0","participant_id":"A175X5H642OD4W"},{"rt":3897,"response":"67","name":"rating","trial_type":"image-slider-response","trial_index":22,"time_elapsed":82954,"internal_node_id":"0.0-22.0","participant_id":"A175X5H642OD4W"},{"rt":1041,"stimulus":"stimuli/26.jpg","button_pressed":"1","name":"emotionType","trial_type":"image-button-response","trial_index":23,"time_elapsed":83997,"internal_node_id":"0.0-23.0","participant_id":"A175X5H642OD4W"},{"rt":null,"stimulus":"<p style=\"font-size: 48px;\">+</p>","key_press":null,"Name":"fixation","trial_type":"html-keyboard-response","trial_index":24,"time_elapsed":84500,"internal_node_id":"0.0-24.0","participant_id":"A175X5H642OD4W"},{"rt":null,"stimulus":"stimuli/58.jpg","button_pressed":null,"name":"noRating","trial_type":"image-button-response","trial_index":25,"time_elapsed":89508,"internal_node_id":"0.0-25.0","participant_id":"A175X5H642OD4W"},{"rt":1407,"stimulus":"stimuli/58.jpg","button_pressed":"0","name":"valence","trial_type":"image-button-response","trial_index":26,"time_elapsed":90917,"internal_node_id":"0.0-26.0","participant_id":"A175X5H642OD4W"},{"rt":2487,"response":"68","name":"rating","trial_type":"image-slider-response","trial_index":27,"time_elapsed":93406,"internal_node_id":"0.0-27.0","participant_id":"A175X5H642OD4W"},{"rt":1882,"stimulus":"stimuli/58.jpg","button_pressed":"1","name":"emotionType","trial_type":"image-button-response","trial_index":28,"time_elapsed":95290,"internal_node_id":"0.0-28.0","participant_id":"A175X5H642OD4W"},{"rt":null,"stimulus":"<p style=\"font-size: 48px;\">+</p>","key_press":null,"Name":"fixation","trial_type":"html-keyboard-response","trial_index":29,"time_elapsed":96295,"internal_node_id":"0.0-29.0","participant_id":"A175X5H642OD4W"},{"rt":null,"stimulus":"stimuli/69.jpg","button_pressed":null,"name":"noRating","trial_type":"image-button-response","trial_index":30,"time_elapsed":101297,"internal_node_id":"0.0-30.0","participant_id":"A175X5H642OD4W"},{"rt":1097,"stimulus":"stimuli/69.jpg","button_pressed":"0","name":"valence","trial_type":"image-button-response","trial_index":31,"time_elapsed":102396,"internal_node_id":"0.0-31.0","participant_id":"A175X5H642OD4W"},{"rt":3545,"response":"74","name":"rating","trial_type":"image-slider-response","trial_index":32,"time_elapsed":105943,"internal_node_id":"0.0-32.0","participant_id":"A175X5H642OD4W"},{"rt":1106,"stimulus":"stimuli/69.jpg","button_pressed":"0","name":"emotionType","trial_type":"image-button-response","trial_index":33,"time_elapsed":107051,"internal_node_id":"0.0-33.0","participant_id":"A175X5H642OD4W"},{"rt":5594,"responses":"{\"Q0\":\"rock\"}","trial_type":"survey-text","trial_index":34,"time_elapsed":112646,"internal_node_id":"0.0-34.0-0.0","participant_id":"A175X5H642OD4W"},{"rt":null,"stimulus":"<p style=\"font-size: 48px;\">+</p>","key_press":null,"Name":"fixation","trial_type":"html-keyboard-response","trial_index":35,"time_elapsed":113156,"internal_node_id":"0.0-35.0","participant_id":"A175X5H642OD4W"},{"rt":null,"stimulus":"stimuli/5.jpg","button_pressed":null,"name":"noRating","trial_type":"image-button-response","trial_index":36,"time_elapsed":118160,"internal_node_id":"0.0-36.0","participant_id":"A175X5H642OD4W"},{"rt":1482,"stimulus":"stimuli/5.jpg","button_pressed":"2","name":"valence","trial_type":"image-button-response","trial_index":37,"time_elapsed":119644,"internal_node_id":"0.0-37.0","participant_id":"A175X5H642OD4W"},{"rt":3256,"response":"46","name":"rating","trial_type":"image-slider-response","trial_index":38,"time_elapsed":122901,"internal_node_id":"0.0-38.0","participant_id":"A175X5H642OD4W"},{"rt":4703,"stimulus":"stimuli/5.jpg","button_pressed":"0","name":"emotionType","trial_type":"image-button-response","trial_index":39,"time_elapsed":127606,"internal_node_id":"0.0-39.0","participant_id":"A175X5H642OD4W"},{"rt":null,"stimulus":"<p style=\"font-size: 48px;\">+</p>","key_press":null,"Name":"fixation","trial_type":"html-keyboard-response","trial_index":40,"time_elapsed":128108,"internal_node_id":"0.0-40.0","participant_id":"A175X5H642OD4W"},{"rt":null,"stimulus":"stimuli/18.jpg","button_pressed":null,"name":"noRating","trial_type":"image-button-response","trial_index":41,"time_elapsed":133124,"internal_node_id":"0.0-41.0","participant_id":"A175X5H642OD4W"},{"rt":1370,"stimulus":"stimuli/18.jpg","button_pressed":"2","name":"valence","trial_type":"image-button-response","trial_index":42,"time_elapsed":134497,"internal_node_id":"0.0-42.0","participant_id":"A175X5H642OD4W"},{"rt":2947,"response":"49","name":"rating","trial_type":"image-slider-response","trial_index":43,"time_elapsed":137445,"internal_node_id":"0.0-43.0","participant_id":"A175X5H642OD4W"},{"rt":1214,"stimulus":"stimuli/18.jpg","button_pressed":"0","name":"emotionType","trial_type":"image-button-response","trial_index":44,"time_elapsed":138661,"internal_node_id":"0.0-44.0","participant_id":"A175X5H642OD4W"},{"rt":null,"stimulus":"<p style=\"font-size: 48px;\">+</p>","key_press":null,"Name":"fixation","trial_type":"html-keyboard-response","trial_index":45,"time_elapsed":139663,"internal_node_id":"0.0-45.0","participant_id":"A175X5H642OD4W"},{"rt":null,"stimulus":"stimuli/43.jpg","button_pressed":null,"name":"noRating","trial_type":"image-button-response","trial_index":46,"time_elapsed":144667,"internal_node_id":"0.0-46.0","participant_id":"A175X5H642OD4W"},{"rt":1501,"stimulus":"stimuli/43.jpg","button_pressed":"0","name":"valence","trial_type":"image-button-response","trial_index":47,"time_elapsed":146170,"internal_node_id":"0.0-47.0","participant_id":"A175X5H642OD4W"},{"rt":3365,"response":"76","name":"rating","trial_type":"image-slider-response","trial_index":48,"time_elapsed":149537,"internal_node_id":"0.0-48.0","participant_id":"A175X5H642OD4W"},{"rt":1789,"stimulus":"stimuli/43.jpg","button_pressed":"0","name":"emotionType","trial_type":"image-button-response","trial_index":49,"time_elapsed":151327,"internal_node_id":"0.0-49.0","participant_id":"A175X5H642OD4W"},{"rt":null,"stimulus":"<p style=\"font-size: 48px;\">+</p>","key_press":null,"Name":"fixation","trial_type":"html-keyboard-response","trial_index":50,"time_elapsed":152835,"internal_node_id":"0.0-50.0","participant_id":"A175X5H642OD4W"},{"rt":null,"stimulus":"stimuli/20.jpg","button_pressed":null,"name":"noRating","trial_type":"image-button-response","trial_index":51,"time_elapsed":157850,"internal_node_id":"0.0-51.0","participant_id":"A175X5H642OD4W"},{"rt":3055,"stimulus":"stimuli/20.jpg","button_pressed":"0","name":"valence","trial_type":"image-button-response","trial_index":52,"time_elapsed":160906,"internal_node_id":"0.0-52.0","participant_id":"A175X5H642OD4W"},{"rt":2106,"response":"81","name":"rating","trial_type":"image-slider-response","trial_index":53,"time_elapsed":163013,"internal_node_id":"0.0-53.0","participant_id":"A175X5H642OD4W"},{"rt":1474,"stimulus":"stimuli/20.jpg","button_pressed":"0","name":"emotionType","trial_type":"image-button-response","trial_index":54,"time_elapsed":164488,"internal_node_id":"0.0-54.0","participant_id":"A175X5H642OD4W"},{"rt":null,"stimulus":"<p style=\"font-size: 48px;\">+</p>","key_press":null,"Name":"fixation","trial_type":"html-keyboard-response","trial_index":55,"time_elapsed":165992,"internal_node_id":"0.0-55.0","participant_id":"A175X5H642OD4W"},{"rt":null,"stimulus":"stimuli/14.jpg","button_pressed":null,"name":"noRating","trial_type":"image-button-response","trial_index":56,"time_elapsed":170994,"internal_node_id":"0.0-56.0","participant_id":"A175X5H642OD4W"},{"rt":2125,"stimulus":"stimuli/14.jpg","button_pressed":"0","name":"valence","trial_type":"image-button-response","trial_index":57,"time_elapsed":173120,"internal_node_id":"0.0-57.0","participant_id":"A175X5H642OD4W"},{"rt":2883,"response":"83","name":"rating","trial_type":"image-slider-response","trial_index":58,"time_elapsed":176005,"internal_node_id":"0.0-58.0","participant_id":"A175X5H642OD4W"},{"rt":1099,"stimulus":"stimuli/14.jpg","button_pressed":"1","name":"emotionType","trial_type":"image-button-response","trial_index":59,"time_elapsed":177106,"internal_node_id":"0.0-59.0","participant_id":"A175X5H642OD4W"},{"rt":3890,"responses":"{\"Q0\":\"sky\"}","trial_type":"survey-text","trial_index":60,"time_elapsed":180997,"internal_node_id":"0.0-60.0-0.0","participant_id":"A175X5H642OD4W"},{"rt":null,"stimulus":"<p style=\"font-size: 48px;\">+</p>","key_press":null,"Name":"fixation","trial_type":"html-keyboard-response","trial_index":61,"time_elapsed":181508,"internal_node_id":"0.0-61.0","participant_id":"A175X5H642OD4W"},{"rt":null,"stimulus":"stimuli/53.jpg","button_pressed":null,"name":"noRating","trial_type":"image-button-response","trial_index":62,"time_elapsed":186520,"internal_node_id":"0.0-62.0","participant_id":"A175X5H642OD4W"},{"rt":1021,"stimulus":"stimuli/53.jpg","button_pressed":"0","name":"valence","trial_type":"image-button-response","trial_index":63,"time_elapsed":187543,"internal_node_id":"0.0-63.0","participant_id":"A175X5H642OD4W"},{"rt":2350,"response":"82","name":"rating","trial_type":"image-slider-response","trial_index":64,"time_elapsed":189894,"internal_node_id":"0.0-64.0","participant_id":"A175X5H642OD4W"},{"rt":1302,"stimulus":"stimuli/53.jpg","button_pressed":"1","name":"emotionType","trial_type":"image-button-response","trial_index":65,"time_elapsed":191198,"internal_node_id":"0.0-65.0","participant_id":"A175X5H642OD4W"},{"rt":null,"stimulus":"<p style=\"font-size: 48px;\">+</p>","key_press":null,"Name":"fixation","trial_type":"html-keyboard-response","trial_index":66,"time_elapsed":192716,"internal_node_id":"0.0-66.0","participant_id":"A175X5H642OD4W"},{"rt":null,"stimulus":"stimuli/47.jpg","button_pressed":null,"name":"noRating","trial_type":"image-button-response","trial_index":67,"time_elapsed":197721,"internal_node_id":"0.0-67.0","participant_id":"A175X5H642OD4W"},{"rt":844,"stimulus":"stimuli/47.jpg","button_pressed":"0","name":"valence","trial_type":"image-button-response","trial_index":68,"time_elapsed":198571,"internal_node_id":"0.0-68.0","participant_id":"A175X5H642OD4W"},{"rt":2601,"response":"66","name":"rating","trial_type":"image-slider-response","trial_index":69,"time_elapsed":201173,"internal_node_id":"0.0-69.0","participant_id":"A175X5H642OD4W"},{"rt":1439,"stimulus":"stimuli/47.jpg","button_pressed":"0","name":"emotionType","trial_type":"image-button-response","trial_index":70,"time_elapsed":202613,"internal_node_id":"0.0-70.0","participant_id":"A175X5H642OD4W"},{"rt":null,"stimulus":"<p style=\"font-size: 48px;\">+</p>","key_press":null,"Name":"fixation","trial_type":"html-keyboard-response","trial_index":71,"time_elapsed":203131,"internal_node_id":"0.0-71.0","participant_id":"A175X5H642OD4W"},{"rt":null,"stimulus":"stimuli/59.jpg","button_pressed":null,"name":"noRating","trial_type":"image-button-response","trial_index":72,"time_elapsed":208142,"internal_node_id":"0.0-72.0","participant_id":"A175X5H642OD4W"},{"rt":1202,"stimulus":"stimuli/59.jpg","button_pressed":"0","name":"valence","trial_type":"image-button-response","trial_index":73,"time_elapsed":209345,"internal_node_id":"0.0-73.0","participant_id":"A175X5H642OD4W"},{"rt":2991,"response":"65","name":"rating","trial_type":"image-slider-response","trial_index":74,"time_elapsed":212338,"internal_node_id":"0.0-74.0","participant_id":"A175X5H642OD4W"},{"rt":1179,"stimulus":"stimuli/59.jpg","button_pressed":"0","name":"emotionType","trial_type":"image-button-response","trial_index":75,"time_elapsed":213518,"internal_node_id":"0.0-75.0","participant_id":"A175X5H642OD4W"},{"rt":null,"stimulus":"<p style=\"font-size: 48px;\">+</p>","key_press":null,"Name":"fixation","trial_type":"html-keyboard-response","trial_index":76,"time_elapsed":215036,"internal_node_id":"0.0-76.0","participant_id":"A175X5H642OD4W"},{"rt":null,"stimulus":"stimuli/1.jpg","button_pressed":null,"name":"noRating","trial_type":"image-button-response","trial_index":77,"time_elapsed":220039,"internal_node_id":"0.0-77.0","participant_id":"A175X5H642OD4W"},{"rt":1526,"stimulus":"stimuli/1.jpg","button_pressed":"0","name":"valence","trial_type":"image-button-response","trial_index":78,"time_elapsed":221566,"internal_node_id":"0.0-78.0","participant_id":"A175X5H642OD4W"},{"rt":2206,"response":"65","name":"rating","trial_type":"image-slider-response","trial_index":79,"time_elapsed":223774,"internal_node_id":"0.0-79.0","participant_id":"A175X5H642OD4W"},{"rt":2358,"stimulus":"stimuli/1.jpg","button_pressed":"0","name":"emotionType","trial_type":"image-button-response","trial_index":80,"time_elapsed":226134,"internal_node_id":"0.0-80.0","participant_id":"A175X5H642OD4W"},{"rt":null,"stimulus":"<p style=\"font-size: 48px;\">+</p>","key_press":null,"Name":"fixation","trial_type":"html-keyboard-response","trial_index":81,"time_elapsed":226635,"internal_node_id":"0.0-81.0","participant_id":"A175X5H642OD4W"},{"rt":null,"stimulus":"stimuli/17.jpg","button_pressed":null,"name":"noRating","trial_type":"image-button-response","trial_index":82,"time_elapsed":231644,"internal_node_id":"0.0-82.0","participant_id":"A175X5H642OD4W"},{"rt":1747,"stimulus":"stimuli/17.jpg","button_pressed":"0","name":"valence","trial_type":"image-button-response","trial_index":83,"time_elapsed":233391,"internal_node_id":"0.0-83.0","participant_id":"A175X5H642OD4W"},{"rt":3465,"response":"74","name":"rating","trial_type":"image-slider-response","trial_index":84,"time_elapsed":236858,"internal_node_id":"0.0-84.0","participant_id":"A175X5H642OD4W"},{"rt":1165,"stimulus":"stimuli/17.jpg","button_pressed":"1","name":"emotionType","trial_type":"image-button-response","trial_index":85,"time_elapsed":238024,"internal_node_id":"0.0-85.0","participant_id":"A175X5H642OD4W"},{"rt":4241,"responses":"{\"Q0\":\"our\"}","trial_type":"survey-text","trial_index":86,"time_elapsed":242267,"internal_node_id":"0.0-86.0-0.0","participant_id":"A175X5H642OD4W"},{"rt":null,"stimulus":"<p style=\"font-size: 48px;\">+</p>","key_press":null,"Name":"fixation","trial_type":"html-keyboard-response","trial_index":87,"time_elapsed":243777,"internal_node_id":"0.0-87.0","participant_id":"A175X5H642OD4W"},{"rt":null,"stimulus":"stimuli/21.jpg","button_pressed":null,"name":"noRating","trial_type":"image-button-response","trial_index":88,"time_elapsed":248782,"internal_node_id":"0.0-88.0","participant_id":"A175X5H642OD4W"},{"rt":980,"stimulus":"stimuli/21.jpg","button_pressed":"0","name":"valence","trial_type":"image-button-response","trial_index":89,"time_elapsed":249763,"internal_node_id":"0.0-89.0","participant_id":"A175X5H642OD4W"},{"rt":2378,"response":"82","name":"rating","trial_type":"image-slider-response","trial_index":90,"time_elapsed":252142,"internal_node_id":"0.0-90.0","participant_id":"A175X5H642OD4W"},{"rt":1344,"stimulus":"stimuli/21.jpg","button_pressed":"0","name":"emotionType","trial_type":"image-button-response","trial_index":91,"time_elapsed":253488,"internal_node_id":"0.0-91.0","participant_id":"A175X5H642OD4W"},{"rt":null,"stimulus":"<p style=\"font-size: 48px;\">+</p>","key_press":null,"Name":"fixation","trial_type":"html-keyboard-response","trial_index":92,"time_elapsed":253990,"internal_node_id":"0.0-92.0","participant_id":"A175X5H642OD4W"},{"rt":null,"stimulus":"stimuli/34.jpg","button_pressed":null,"name":"noRating","trial_type":"image-button-response","trial_index":93,"time_elapsed":259005,"internal_node_id":"0.0-93.0","participant_id":"A175X5H642OD4W"},{"rt":1622,"stimulus":"stimuli/34.jpg","button_pressed":"0","name":"valence","trial_type":"image-button-response","trial_index":94,"time_elapsed":260628,"internal_node_id":"0.0-94.0","participant_id":"A175X5H642OD4W"},{"rt":2250,"response":"82","name":"rating","trial_type":"image-slider-response","trial_index":95,"time_elapsed":262880,"internal_node_id":"0.0-95.0","participant_id":"A175X5H642OD4W"},{"rt":1005,"stimulus":"stimuli/34.jpg","button_pressed":"0","name":"emotionType","trial_type":"image-button-response","trial_index":96,"time_elapsed":263886,"internal_node_id":"0.0-96.0","participant_id":"A175X5H642OD4W"},{"rt":null,"stimulus":"<p style=\"font-size: 48px;\">+</p>","key_press":null,"Name":"fixation","trial_type":"html-keyboard-response","trial_index":97,"time_elapsed":265399,"internal_node_id":"0.0-97.0","participant_id":"A175X5H642OD4W"},{"rt":null,"stimulus":"stimuli/62.jpg","button_pressed":null,"name":"noRating","trial_type":"image-button-response","trial_index":98,"time_elapsed":270419,"internal_node_id":"0.0-98.0","participant_id":"A175X5H642OD4W"},{"rt":1270,"stimulus":"stimuli/62.jpg","button_pressed":"0","name":"valence","trial_type":"image-button-response","trial_index":99,"time_elapsed":271691,"internal_node_id":"0.0-99.0","participant_id":"A175X5H642OD4W"},{"rt":2777,"response":"66","name":"rating","trial_type":"image-slider-response","trial_index":100,"time_elapsed":274469,"internal_node_id":"0.0-100.0","participant_id":"A175X5H642OD4W"},{"rt":1248,"stimulus":"stimuli/62.jpg","button_pressed":"1","name":"emotionType","trial_type":"image-button-response","trial_index":101,"time_elapsed":275719,"internal_node_id":"0.0-101.0","participant_id":"A175X5H642OD4W"},{"rt":null,"stimulus":"<p style=\"font-size: 48px;\">+</p>","key_press":null,"Name":"fixation","trial_type":"html-keyboard-response","trial_index":102,"time_elapsed":276721,"internal_node_id":"0.0-102.0","participant_id":"A175X5H642OD4W"},{"rt":null,"stimulus":"stimuli/12.jpg","button_pressed":null,"name":"noRating","trial_type":"image-button-response","trial_index":103,"time_elapsed":281741,"internal_node_id":"0.0-103.0","participant_id":"A175X5H642OD4W"},{"rt":2111,"stimulus":"stimuli/12.jpg","button_pressed":"0","name":"valence","trial_type":"image-button-response","trial_index":104,"time_elapsed":283854,"internal_node_id":"0.0-104.0","participant_id":"A175X5H642OD4W"},{"rt":2991,"response":"67","name":"rating","trial_type":"image-slider-response","trial_index":105,"time_elapsed":286846,"internal_node_id":"0.0-105.0","participant_id":"A175X5H642OD4W"},{"rt":1336,"stimulus":"stimuli/12.jpg","button_pressed":"0","name":"emotionType","trial_type":"image-button-response","trial_index":106,"time_elapsed":288184,"internal_node_id":"0.0-106.0","participant_id":"A175X5H642OD4W"},{"rt":null,"stimulus":"<p style=\"font-size: 48px;\">+</p>","key_press":null,"Name":"fixation","trial_type":"html-keyboard-response","trial_index":107,"time_elapsed":288686,"internal_node_id":"0.0-107.0","participant_id":"A175X5H642OD4W"},{"rt":null,"stimulus":"stimuli/28.jpg","button_pressed":null,"name":"noRating","trial_type":"image-button-response","trial_index":108,"time_elapsed":293701,"internal_node_id":"0.0-108.0","participant_id":"A175X5H642OD4W"},{"rt":1624,"stimulus":"stimuli/28.jpg","button_pressed":"0","name":"valence","trial_type":"image-button-response","trial_index":109,"time_elapsed":295326,"internal_node_id":"0.0-109.0","participant_id":"A175X5H642OD4W"},{"rt":2538,"response":"66","name":"rating","trial_type":"image-slider-response","trial_index":110,"time_elapsed":297865,"internal_node_id":"0.0-110.0","participant_id":"A175X5H642OD4W"},{"rt":1130,"stimulus":"stimuli/28.jpg","button_pressed":"0","name":"emotionType","trial_type":"image-button-response","trial_index":111,"time_elapsed":298996,"internal_node_id":"0.0-111.0","participant_id":"A175X5H642OD4W"},{"rt":5397,"responses":"{\"Q0\":\"course\"}","trial_type":"survey-text","trial_index":112,"time_elapsed":304395,"internal_node_id":"0.0-112.0-0.0","participant_id":"A175X5H642OD4W"},{"rt":null,"stimulus":"<p style=\"font-size: 48px;\">+</p>","key_press":null,"Name":"fixation","trial_type":"html-keyboard-response","trial_index":113,"time_elapsed":304903,"internal_node_id":"0.0-113.0","participant_id":"A175X5H642OD4W"},{"rt":null,"stimulus":"stimuli/7.jpg","button_pressed":null,"name":"noRating","trial_type":"image-button-response","trial_index":114,"time_elapsed":309910,"internal_node_id":"0.0-114.0","participant_id":"A175X5H642OD4W"},{"rt":1338,"stimulus":"stimuli/7.jpg","button_pressed":"0","name":"valence","trial_type":"image-button-response","trial_index":115,"time_elapsed":311249,"internal_node_id":"0.0-115.0","participant_id":"A175X5H642OD4W"},{"rt":2444,"response":"66","name":"rating","trial_type":"image-slider-response","trial_index":116,"time_elapsed":313694,"internal_node_id":"0.0-116.0","participant_id":"A175X5H642OD4W"},{"rt":1481,"stimulus":"stimuli/7.jpg","button_pressed":"0","name":"emotionType","trial_type":"image-button-response","trial_index":117,"time_elapsed":315176,"internal_node_id":"0.0-117.0","participant_id":"A175X5H642OD4W"},{"rt":null,"stimulus":"<p style=\"font-size: 48px;\">+</p>","key_press":null,"Name":"fixation","trial_type":"html-keyboard-response","trial_index":118,"time_elapsed":315679,"internal_node_id":"0.0-118.0","participant_id":"A175X5H642OD4W"},{"rt":null,"stimulus":"stimuli/71.jpg","button_pressed":null,"name":"noRating","trial_type":"image-button-response","trial_index":119,"time_elapsed":320683,"internal_node_id":"0.0-119.0","participant_id":"A175X5H642OD4W"},{"rt":1167,"stimulus":"stimuli/71.jpg","button_pressed":"0","name":"valence","trial_type":"image-button-response","trial_index":120,"time_elapsed":321851,"internal_node_id":"0.0-120.0","participant_id":"A175X5H642OD4W"},{"rt":2215,"response":"82","name":"rating","trial_type":"image-slider-response","trial_index":121,"time_elapsed":324067,"internal_node_id":"0.0-121.0","participant_id":"A175X5H642OD4W"},{"rt":1085,"stimulus":"stimuli/71.jpg","button_pressed":"1","name":"emotionType","trial_type":"image-button-response","trial_index":122,"time_elapsed":325154,"internal_node_id":"0.0-122.0","participant_id":"A175X5H642OD4W"},{"rt":null,"stimulus":"<p style=\"font-size: 48px;\">+</p>","key_press":null,"Name":"fixation","trial_type":"html-keyboard-response","trial_index":123,"time_elapsed":325665,"internal_node_id":"0.0-123.0","participant_id":"A175X5H642OD4W"},{"rt":null,"stimulus":"stimuli/9.jpg","button_pressed":null,"name":"noRating","trial_type":"image-button-response","trial_index":124,"time_elapsed":330670,"internal_node_id":"0.0-124.0","participant_id":"A175X5H642OD4W"},{"rt":1200,"stimulus":"stimuli/9.jpg","button_pressed":"0","name":"valence","trial_type":"image-button-response","trial_index":125,"time_elapsed":331872,"internal_node_id":"0.0-125.0","participant_id":"A175X5H642OD4W"},{"rt":2270,"response":"70","name":"rating","trial_type":"image-slider-response","trial_index":126,"time_elapsed":334144,"internal_node_id":"0.0-126.0","participant_id":"A175X5H642OD4W"},{"rt":1818,"stimulus":"stimuli/9.jpg","button_pressed":"1","name":"emotionType","trial_type":"image-button-response","trial_index":127,"time_elapsed":335964,"internal_node_id":"0.0-127.0","participant_id":"A175X5H642OD4W"},{"rt":null,"stimulus":"<p style=\"font-size: 48px;\">+</p>","key_press":null,"Name":"fixation","trial_type":"html-keyboard-response","trial_index":128,"time_elapsed":336968,"internal_node_id":"0.0-128.0","participant_id":"A175X5H642OD4W"},{"rt":null,"stimulus":"stimuli/40.jpg","button_pressed":null,"name":"noRating","trial_type":"image-button-response","trial_index":129,"time_elapsed":341980,"internal_node_id":"0.0-129.0","participant_id":"A175X5H642OD4W"},{"rt":1329,"stimulus":"stimuli/40.jpg","button_pressed":"2","name":"valence","trial_type":"image-button-response","trial_index":130,"time_elapsed":343310,"internal_node_id":"0.0-130.0","participant_id":"A175X5H642OD4W"},{"rt":2839,"response":"56","name":"rating","trial_type":"image-slider-response","trial_index":131,"time_elapsed":346151,"internal_node_id":"0.0-131.0","participant_id":"A175X5H642OD4W"},{"rt":1363,"stimulus":"stimuli/40.jpg","button_pressed":"0","name":"emotionType","trial_type":"image-button-response","trial_index":132,"time_elapsed":347516,"internal_node_id":"0.0-132.0","participant_id":"A175X5H642OD4W"},{"rt":null,"stimulus":"<p style=\"font-size: 48px;\">+</p>","key_press":null,"Name":"fixation","trial_type":"html-keyboard-response","trial_index":133,"time_elapsed":349030,"internal_node_id":"0.0-133.0","participant_id":"A175X5H642OD4W"},{"rt":null,"stimulus":"stimuli/8.jpg","button_pressed":null,"name":"noRating","trial_type":"image-button-response","trial_index":134,"time_elapsed":354033,"internal_node_id":"0.0-134.0","participant_id":"A175X5H642OD4W"},{"rt":1561,"stimulus":"stimuli/8.jpg","button_pressed":"2","name":"valence","trial_type":"image-button-response","trial_index":135,"time_elapsed":355595,"internal_node_id":"0.0-135.0","participant_id":"A175X5H642OD4W"},{"rt":2659,"response":"53","name":"rating","trial_type":"image-slider-response","trial_index":136,"time_elapsed":358256,"internal_node_id":"0.0-136.0","participant_id":"A175X5H642OD4W"},{"rt":2452,"stimulus":"stimuli/8.jpg","button_pressed":"0","name":"emotionType","trial_type":"image-button-response","trial_index":137,"time_elapsed":360709,"internal_node_id":"0.0-137.0","participant_id":"A175X5H642OD4W"},{"rt":4372,"responses":"{\"Q0\":\"we\"}","trial_type":"survey-text","trial_index":138,"time_elapsed":365082,"internal_node_id":"0.0-138.0-0.0","participant_id":"A175X5H642OD4W"},{"rt":null,"stimulus":"<p style=\"font-size: 48px;\">+</p>","key_press":null,"Name":"fixation","trial_type":"html-keyboard-response","trial_index":139,"time_elapsed":366087,"internal_node_id":"0.0-139.0","participant_id":"A175X5H642OD4W"},{"rt":null,"stimulus":"stimuli/61.jpg","button_pressed":null,"name":"noRating","trial_type":"image-button-response","trial_index":140,"time_elapsed":371092,"internal_node_id":"0.0-140.0","participant_id":"A175X5H642OD4W"},{"rt":1364,"stimulus":"stimuli/61.jpg","button_pressed":"0","name":"valence","trial_type":"image-button-response","trial_index":141,"time_elapsed":372457,"internal_node_id":"0.0-141.0","participant_id":"A175X5H642OD4W"},{"rt":2811,"response":"64","name":"rating","trial_type":"image-slider-response","trial_index":142,"time_elapsed":375270,"internal_node_id":"0.0-142.0","participant_id":"A175X5H642OD4W"},{"rt":998,"stimulus":"stimuli/61.jpg","button_pressed":"0","name":"emotionType","trial_type":"image-button-response","trial_index":143,"time_elapsed":376270,"internal_node_id":"0.0-143.0","participant_id":"A175X5H642OD4W"},{"rt":null,"stimulus":"<p style=\"font-size: 48px;\">+</p>","key_press":null,"Name":"fixation","trial_type":"html-keyboard-response","trial_index":144,"time_elapsed":377775,"internal_node_id":"0.0-144.0","participant_id":"A175X5H642OD4W"},{"rt":null,"stimulus":"stimuli/50.jpg","button_pressed":null,"name":"noRating","trial_type":"image-button-response","trial_index":145,"time_elapsed":382778,"internal_node_id":"0.0-145.0","participant_id":"A175X5H642OD4W"},{"rt":1035,"stimulus":"stimuli/50.jpg","button_pressed":"0","name":"valence","trial_type":"image-button-response","trial_index":146,"time_elapsed":383815,"internal_node_id":"0.0-146.0","participant_id":"A175X5H642OD4W"},{"rt":2242,"response":"66","name":"rating","trial_type":"image-slider-response","trial_index":147,"time_elapsed":386059,"internal_node_id":"0.0-147.0","participant_id":"A175X5H642OD4W"},{"rt":1272,"stimulus":"stimuli/50.jpg","button_pressed":"0","name":"emotionType","trial_type":"image-button-response","trial_index":148,"time_elapsed":387332,"internal_node_id":"0.0-148.0","participant_id":"A175X5H642OD4W"},{"rt":null,"stimulus":"<p style=\"font-size: 48px;\">+</p>","key_press":null,"Name":"fixation","trial_type":"html-keyboard-response","trial_index":149,"time_elapsed":387840,"internal_node_id":"0.0-149.0","participant_id":"A175X5H642OD4W"},{"rt":null,"stimulus":"stimuli/48.jpg","button_pressed":null,"name":"noRating","trial_type":"image-button-response","trial_index":150,"time_elapsed":392844,"internal_node_id":"0.0-150.0","participant_id":"A175X5H642OD4W"},{"rt":1306,"stimulus":"stimuli/48.jpg","button_pressed":"0","name":"valence","trial_type":"image-button-response","trial_index":151,"time_elapsed":394153,"internal_node_id":"0.0-151.0","participant_id":"A175X5H642OD4W"},{"rt":2638,"response":"52","name":"rating","trial_type":"image-slider-response","trial_index":152,"time_elapsed":396792,"internal_node_id":"0.0-152.0","participant_id":"A175X5H642OD4W"},{"rt":1220,"stimulus":"stimuli/48.jpg","button_pressed":"0","name":"emotionType","trial_type":"image-button-response","trial_index":153,"time_elapsed":398014,"internal_node_id":"0.0-153.0","participant_id":"A175X5H642OD4W"},{"rt":null,"stimulus":"<p style=\"font-size: 48px;\">+</p>","key_press":null,"Name":"fixation","trial_type":"html-keyboard-response","trial_index":154,"time_elapsed":399517,"internal_node_id":"0.0-154.0","participant_id":"A175X5H642OD4W"},{"rt":null,"stimulus":"stimuli/23.jpg","button_pressed":null,"name":"noRating","trial_type":"image-button-response","trial_index":155,"time_elapsed":404524,"internal_node_id":"0.0-155.0","participant_id":"A175X5H642OD4W"},{"rt":1179,"stimulus":"stimuli/23.jpg","button_pressed":"2","name":"valence","trial_type":"image-button-response","trial_index":156,"time_elapsed":405705,"internal_node_id":"0.0-156.0","participant_id":"A175X5H642OD4W"},{"rt":2940,"response":"58","name":"rating","trial_type":"image-slider-response","trial_index":157,"time_elapsed":408647,"internal_node_id":"0.0-157.0","participant_id":"A175X5H642OD4W"},{"rt":1696,"stimulus":"stimuli/23.jpg","button_pressed":"2","name":"emotionType","trial_type":"image-button-response","trial_index":158,"time_elapsed":410344,"internal_node_id":"0.0-158.0","participant_id":"A175X5H642OD4W"},{"rt":null,"stimulus":"<p style=\"font-size: 48px;\">+</p>","key_press":null,"Name":"fixation","trial_type":"html-keyboard-response","trial_index":159,"time_elapsed":411852,"internal_node_id":"0.0-159.0","participant_id":"A175X5H642OD4W"},{"rt":null,"stimulus":"stimuli/39.jpg","button_pressed":null,"name":"noRating","trial_type":"image-button-response","trial_index":160,"time_elapsed":416867,"internal_node_id":"0.0-160.0","participant_id":"A175X5H642OD4W"},{"rt":1554,"stimulus":"stimuli/39.jpg","button_pressed":"2","name":"valence","trial_type":"image-button-response","trial_index":161,"time_elapsed":418422,"internal_node_id":"0.0-161.0","participant_id":"A175X5H642OD4W"},{"rt":2020,"response":"51","name":"rating","trial_type":"image-slider-response","trial_index":162,"time_elapsed":420443,"internal_node_id":"0.0-162.0","participant_id":"A175X5H642OD4W"},{"rt":1207,"stimulus":"stimuli/39.jpg","button_pressed":"0","name":"emotionType","trial_type":"image-button-response","trial_index":163,"time_elapsed":421652,"internal_node_id":"0.0-163.0","participant_id":"A175X5H642OD4W"},{"rt":4638,"stimulus":"stimuli/ins/Slide8.JPG","button_pressed":"0","trial_type":"image-button-response","trial_index":164,"time_elapsed":426290,"internal_node_id":"0.0-164.0","participant_id":"A175X5H642OD4W"}]