[{"rt":10658,"responses":"{\"Q0\":\"A1F5Y489IXNV1R\"}","trial_type":"survey-text","trial_index":0,"time_elapsed":10665,"internal_node_id":"0.0-0.0-0.0","participant_id":"A1F5Y489IXNV1R"},{"rt":1800,"stimulus":"stimuli/ins/Slide1.JPG","button_pressed":"0","Name":"instructions","trial_type":"image-button-response","trial_index":1,"time_elapsed":12471,"internal_node_id":"0.0-1.0","participant_id":"A1F5Y489IXNV1R"},{"rt":1251,"stimulus":"stimuli/ins/Slide2.JPG","button_pressed":"0","Name":"instructions","trial_type":"image-button-response","trial_index":2,"time_elapsed":13726,"internal_node_id":"0.0-2.0","participant_id":"A1F5Y489IXNV1R"},{"rt":1075,"stimulus":"stimuli/ins/Slide3.JPG","button_pressed":"0","Name":"instructions","trial_type":"image-button-response","trial_index":3,"time_elapsed":14806,"internal_node_id":"0.0-3.0","participant_id":"A1F5Y489IXNV1R"},{"rt":909,"stimulus":"stimuli/ins/Slide4.JPG","button_pressed":"0","Name":"instructions","trial_type":"image-button-response","trial_index":4,"time_elapsed":15718,"internal_node_id":"0.0-4.0","participant_id":"A1F5Y489IXNV1R"},{"rt":875,"stimulus":"stimuli/ins/Slide5.JPG","button_pressed":"0","Name":"instructions","trial_type":"image-button-response","trial_index":5,"time_elapsed":16597,"internal_node_id":"0.0-5.0","participant_id":"A1F5Y489IXNV1R"},{"rt":1073,"stimulus":"stimuli/ins/Slide6.JPG","button_pressed":"0","Name":"instructions","trial_type":"image-button-response","trial_index":6,"time_elapsed":17672,"internal_node_id":"0.0-6.0","participant_id":"A1F5Y489IXNV1R"},{"rt":1104,"stimulus":"stimuli/ins/Slide7.JPG","button_pressed":"0","Name":"instructions","trial_type":"image-button-response","trial_index":7,"time_elapsed":18781,"internal_node_id":"0.0-7.0","participant_id":"A1F5Y489IXNV1R"},{"rt":16866,"responses":"{\"Q0\":\"but\"}","trial_type":"survey-text","trial_index":8,"time_elapsed":35651,"internal_node_id":"0.0-8.0-0.0","participant_id":"A1F5Y489IXNV1R"},{"rt":null,"stimulus":"<p style=\"font-size: 48px;\">+</p>","key_press":null,"Name":"fixation","trial_type":"html-keyboard-response","trial_index":9,"time_elapsed":36155,"internal_node_id":"0.0-9.0","participant_id":"A1F5Y489IXNV1R"},{"rt":null,"stimulus":"stimuli/42.jpg","button_pressed":null,"name":"noRating","trial_type":"image-button-response","trial_index":10,"time_elapsed":41169,"internal_node_id":"0.0-10.0","participant_id":"A1F5Y489IXNV1R"},{"rt":5941,"stimulus":"stimuli/42.jpg","button_pressed":"0","name":"valence","trial_type":"image-button-response","trial_index":11,"time_elapsed":47113,"internal_node_id":"0.0-11.0","participant_id":"A1F5Y489IXNV1R"},{"rt":4106,"response":"74","name":"rating","trial_type":"image-slider-response","trial_index":12,"time_elapsed":51226,"internal_node_id":"0.0-12.0","participant_id":"A1F5Y489IXNV1R"},{"rt":4209,"stimulus":"stimuli/42.jpg","button_pressed":"0","name":"emotionType","trial_type":"image-button-response","trial_index":13,"time_elapsed":55439,"internal_node_id":"0.0-13.0","participant_id":"A1F5Y489IXNV1R"},{"rt":null,"stimulus":"<p style=\"font-size: 48px;\">+</p>","key_press":null,"Name":"fixation","trial_type":"html-keyboard-response","trial_index":14,"time_elapsed":56942,"internal_node_id":"0.0-14.0","participant_id":"A1F5Y489IXNV1R"},{"rt":null,"stimulus":"stimuli/65.jpg","button_pressed":null,"name":"noRating","trial_type":"image-button-response","trial_index":15,"time_elapsed":61944,"internal_node_id":"0.0-15.0","participant_id":"A1F5Y489IXNV1R"},{"rt":2179,"stimulus":"stimuli/65.jpg","button_pressed":"0","name":"valence","trial_type":"image-button-response","trial_index":16,"time_elapsed":64126,"internal_node_id":"0.0-16.0","participant_id":"A1F5Y489IXNV1R"},{"rt":3389,"response":"62","name":"rating","trial_type":"image-slider-response","trial_index":17,"time_elapsed":67517,"internal_node_id":"0.0-17.0","participant_id":"A1F5Y489IXNV1R"},{"rt":4133,"stimulus":"stimuli/65.jpg","button_pressed":"0","name":"emotionType","trial_type":"image-button-response","trial_index":18,"time_elapsed":71653,"internal_node_id":"0.0-18.0","participant_id":"A1F5Y489IXNV1R"},{"rt":null,"stimulus":"<p style=\"font-size: 48px;\">+</p>","key_press":null,"Name":"fixation","trial_type":"html-keyboard-response","trial_index":19,"time_elapsed":73157,"internal_node_id":"0.0-19.0","participant_id":"A1F5Y489IXNV1R"},{"rt":null,"stimulus":"stimuli/37.jpg","button_pressed":null,"name":"noRating","trial_type":"image-button-response","trial_index":20,"time_elapsed":78163,"internal_node_id":"0.0-20.0","participant_id":"A1F5Y489IXNV1R"},{"rt":1991,"stimulus":"stimuli/37.jpg","button_pressed":"0","name":"valence","trial_type":"image-button-response","trial_index":21,"time_elapsed":80156,"internal_node_id":"0.0-21.0","participant_id":"A1F5Y489IXNV1R"},{"rt":3988,"response":"81","name":"rating","trial_type":"image-slider-response","trial_index":22,"time_elapsed":84148,"internal_node_id":"0.0-22.0","participant_id":"A1F5Y489IXNV1R"},{"rt":3251,"stimulus":"stimuli/37.jpg","button_pressed":"0","name":"emotionType","trial_type":"image-button-response","trial_index":23,"time_elapsed":87404,"internal_node_id":"0.0-23.0","participant_id":"A1F5Y489IXNV1R"},{"rt":null,"stimulus":"<p style=\"font-size: 48px;\">+</p>","key_press":null,"Name":"fixation","trial_type":"html-keyboard-response","trial_index":24,"time_elapsed":88908,"internal_node_id":"0.0-24.0","participant_id":"A1F5Y489IXNV1R"},{"rt":null,"stimulus":"stimuli/44.jpg","button_pressed":null,"name":"noRating","trial_type":"image-button-response","trial_index":25,"time_elapsed":93912,"internal_node_id":"0.0-25.0","participant_id":"A1F5Y489IXNV1R"},{"rt":16759,"stimulus":"stimuli/44.jpg","button_pressed":"0","name":"valence","trial_type":"image-button-response","trial_index":26,"time_elapsed":110673,"internal_node_id":"0.0-26.0","participant_id":"A1F5Y489IXNV1R"},{"rt":3354,"response":"80","name":"rating","trial_type":"image-slider-response","trial_index":27,"time_elapsed":114031,"internal_node_id":"0.0-27.0","participant_id":"A1F5Y489IXNV1R"},{"rt":4638,"stimulus":"stimuli/44.jpg","button_pressed":"1","name":"emotionType","trial_type":"image-button-response","trial_index":28,"time_elapsed":118673,"internal_node_id":"0.0-28.0","participant_id":"A1F5Y489IXNV1R"},{"rt":null,"stimulus":"<p style=\"font-size: 48px;\">+</p>","key_press":null,"Name":"fixation","trial_type":"html-keyboard-response","trial_index":29,"time_elapsed":119181,"internal_node_id":"0.0-29.0","participant_id":"A1F5Y489IXNV1R"},{"rt":null,"stimulus":"stimuli/40.jpg","button_pressed":null,"name":"noRating","trial_type":"image-button-response","trial_index":30,"time_elapsed":124185,"internal_node_id":"0.0-30.0","participant_id":"A1F5Y489IXNV1R"},{"rt":9513,"stimulus":"stimuli/40.jpg","button_pressed":"0","name":"valence","trial_type":"image-button-response","trial_index":31,"time_elapsed":133702,"internal_node_id":"0.0-31.0","participant_id":"A1F5Y489IXNV1R"},{"rt":4420,"response":"72","name":"rating","trial_type":"image-slider-response","trial_index":32,"time_elapsed":138126,"internal_node_id":"0.0-32.0","participant_id":"A1F5Y489IXNV1R"},{"rt":2190,"stimulus":"stimuli/40.jpg","button_pressed":"1","name":"emotionType","trial_type":"image-button-response","trial_index":33,"time_elapsed":140319,"internal_node_id":"0.0-33.0","participant_id":"A1F5Y489IXNV1R"},{"rt":10737,"responses":"{\"Q0\":\"rock\"}","trial_type":"survey-text","trial_index":34,"time_elapsed":151058,"internal_node_id":"0.0-34.0-0.0","participant_id":"A1F5Y489IXNV1R"},{"rt":null,"stimulus":"<p style=\"font-size: 48px;\">+</p>","key_press":null,"Name":"fixation","trial_type":"html-keyboard-response","trial_index":35,"time_elapsed":151561,"internal_node_id":"0.0-35.0","participant_id":"A1F5Y489IXNV1R"},{"rt":null,"stimulus":"stimuli/48.jpg","button_pressed":null,"name":"noRating","trial_type":"image-button-response","trial_index":36,"time_elapsed":156564,"internal_node_id":"0.0-36.0","participant_id":"A1F5Y489IXNV1R"},{"rt":2570,"stimulus":"stimuli/48.jpg","button_pressed":"0","name":"valence","trial_type":"image-button-response","trial_index":37,"time_elapsed":159135,"internal_node_id":"0.0-37.0","participant_id":"A1F5Y489IXNV1R"},{"rt":4409,"response":"82","name":"rating","trial_type":"image-slider-response","trial_index":38,"time_elapsed":163544,"internal_node_id":"0.0-38.0","participant_id":"A1F5Y489IXNV1R"},{"rt":2834,"stimulus":"stimuli/48.jpg","button_pressed":"0","name":"emotionType","trial_type":"image-button-response","trial_index":39,"time_elapsed":166386,"internal_node_id":"0.0-39.0","participant_id":"A1F5Y489IXNV1R"},{"rt":null,"stimulus":"<p style=\"font-size: 48px;\">+</p>","key_press":null,"Name":"fixation","trial_type":"html-keyboard-response","trial_index":40,"time_elapsed":166888,"internal_node_id":"0.0-40.0","participant_id":"A1F5Y489IXNV1R"},{"rt":null,"stimulus":"stimuli/36.jpg","button_pressed":null,"name":"noRating","trial_type":"image-button-response","trial_index":41,"time_elapsed":171891,"internal_node_id":"0.0-41.0","participant_id":"A1F5Y489IXNV1R"},{"rt":5261,"stimulus":"stimuli/36.jpg","button_pressed":"1","name":"valence","trial_type":"image-button-response","trial_index":42,"time_elapsed":177154,"internal_node_id":"0.0-42.0","participant_id":"A1F5Y489IXNV1R"},{"rt":6605,"response":"66","name":"rating","trial_type":"image-slider-response","trial_index":43,"time_elapsed":183761,"internal_node_id":"0.0-43.0","participant_id":"A1F5Y489IXNV1R"},{"rt":3117,"stimulus":"stimuli/36.jpg","button_pressed":"1","name":"emotionType","trial_type":"image-button-response","trial_index":44,"time_elapsed":186879,"internal_node_id":"0.0-44.0","participant_id":"A1F5Y489IXNV1R"},{"rt":null,"stimulus":"<p style=\"font-size: 48px;\">+</p>","key_press":null,"Name":"fixation","trial_type":"html-keyboard-response","trial_index":45,"time_elapsed":187880,"internal_node_id":"0.0-45.0","participant_id":"A1F5Y489IXNV1R"},{"rt":null,"stimulus":"stimuli/19.jpg","button_pressed":null,"name":"noRating","trial_type":"image-button-response","trial_index":46,"time_elapsed":192882,"internal_node_id":"0.0-46.0","participant_id":"A1F5Y489IXNV1R"},{"rt":1793,"stimulus":"stimuli/19.jpg","button_pressed":"0","name":"valence","trial_type":"image-button-response","trial_index":47,"time_elapsed":194678,"internal_node_id":"0.0-47.0","participant_id":"A1F5Y489IXNV1R"},{"rt":1508,"response":"0","name":"rating","trial_type":"image-slider-response","trial_index":48,"time_elapsed":196191,"internal_node_id":"0.0-48.0","participant_id":"A1F5Y489IXNV1R"},{"rt":2094,"stimulus":"stimuli/19.jpg","button_pressed":"0","name":"emotionType","trial_type":"image-button-response","trial_index":49,"time_elapsed":201295,"internal_node_id":"0.0-49.0","participant_id":"A1F5Y489IXNV1R"},{"rt":null,"stimulus":"<p style=\"font-size: 48px;\">+</p>","key_press":null,"Name":"fixation","trial_type":"html-keyboard-response","trial_index":50,"time_elapsed":202298,"internal_node_id":"0.0-50.0","participant_id":"A1F5Y489IXNV1R"},{"rt":null,"stimulus":"stimuli/67.jpg","button_pressed":null,"name":"noRating","trial_type":"image-button-response","trial_index":51,"time_elapsed":207300,"internal_node_id":"0.0-51.0","participant_id":"A1F5Y489IXNV1R"},{"rt":1725,"stimulus":"stimuli/67.jpg","button_pressed":"0","name":"valence","trial_type":"image-button-response","trial_index":52,"time_elapsed":209028,"internal_node_id":"0.0-52.0","participant_id":"A1F5Y489IXNV1R"},{"rt":3739,"response":"71","name":"rating","trial_type":"image-slider-response","trial_index":53,"time_elapsed":212770,"internal_node_id":"0.0-53.0","participant_id":"A1F5Y489IXNV1R"},{"rt":1853,"stimulus":"stimuli/67.jpg","button_pressed":"0","name":"emotionType","trial_type":"image-button-response","trial_index":54,"time_elapsed":214628,"internal_node_id":"0.0-54.0","participant_id":"A1F5Y489IXNV1R"},{"rt":null,"stimulus":"<p style=\"font-size: 48px;\">+</p>","key_press":null,"Name":"fixation","trial_type":"html-keyboard-response","trial_index":55,"time_elapsed":216130,"internal_node_id":"0.0-55.0","participant_id":"A1F5Y489IXNV1R"},{"rt":null,"stimulus":"stimuli/46.jpg","button_pressed":null,"name":"noRating","trial_type":"image-button-response","trial_index":56,"time_elapsed":221133,"internal_node_id":"0.0-56.0","participant_id":"A1F5Y489IXNV1R"},{"rt":2250,"stimulus":"stimuli/46.jpg","button_pressed":"0","name":"valence","trial_type":"image-button-response","trial_index":57,"time_elapsed":223385,"internal_node_id":"0.0-57.0","participant_id":"A1F5Y489IXNV1R"},{"rt":3268,"response":"75","name":"rating","trial_type":"image-slider-response","trial_index":58,"time_elapsed":226657,"internal_node_id":"0.0-58.0","participant_id":"A1F5Y489IXNV1R"},{"rt":2187,"stimulus":"stimuli/46.jpg","button_pressed":"1","name":"emotionType","trial_type":"image-button-response","trial_index":59,"time_elapsed":228848,"internal_node_id":"0.0-59.0","participant_id":"A1F5Y489IXNV1R"},{"rt":6252,"responses":"{\"Q0\":\"sky\"}","trial_type":"survey-text","trial_index":60,"time_elapsed":235104,"internal_node_id":"0.0-60.0-0.0","participant_id":"A1F5Y489IXNV1R"},{"rt":null,"stimulus":"<p style=\"font-size: 48px;\">+</p>","key_press":null,"Name":"fixation","trial_type":"html-keyboard-response","trial_index":61,"time_elapsed":236607,"internal_node_id":"0.0-61.0","participant_id":"A1F5Y489IXNV1R"},{"rt":null,"stimulus":"stimuli/70.jpg","button_pressed":null,"name":"noRating","trial_type":"image-button-response","trial_index":62,"time_elapsed":241609,"internal_node_id":"0.0-62.0","participant_id":"A1F5Y489IXNV1R"},{"rt":1924,"stimulus":"stimuli/70.jpg","button_pressed":"0","name":"valence","trial_type":"image-button-response","trial_index":63,"time_elapsed":243536,"internal_node_id":"0.0-63.0","participant_id":"A1F5Y489IXNV1R"},{"rt":3292,"response":"76","name":"rating","trial_type":"image-slider-response","trial_index":64,"time_elapsed":246833,"internal_node_id":"0.0-64.0","participant_id":"A1F5Y489IXNV1R"},{"rt":1714,"stimulus":"stimuli/70.jpg","button_pressed":"0","name":"emotionType","trial_type":"image-button-response","trial_index":65,"time_elapsed":248550,"internal_node_id":"0.0-65.0","participant_id":"A1F5Y489IXNV1R"},{"rt":null,"stimulus":"<p style=\"font-size: 48px;\">+</p>","key_press":null,"Name":"fixation","trial_type":"html-keyboard-response","trial_index":66,"time_elapsed":249553,"internal_node_id":"0.0-66.0","participant_id":"A1F5Y489IXNV1R"},{"rt":null,"stimulus":"stimuli/7.jpg","button_pressed":null,"name":"noRating","trial_type":"image-button-response","trial_index":67,"time_elapsed":254554,"internal_node_id":"0.0-67.0","participant_id":"A1F5Y489IXNV1R"},{"rt":1634,"stimulus":"stimuli/7.jpg","button_pressed":"0","name":"valence","trial_type":"image-button-response","trial_index":68,"time_elapsed":256214,"internal_node_id":"0.0-68.0","participant_id":"A1F5Y489IXNV1R"},{"rt":2981,"response":"80","name":"rating","trial_type":"image-slider-response","trial_index":69,"time_elapsed":259196,"internal_node_id":"0.0-69.0","participant_id":"A1F5Y489IXNV1R"},{"rt":1877,"stimulus":"stimuli/7.jpg","button_pressed":"0","name":"emotionType","trial_type":"image-button-response","trial_index":70,"time_elapsed":261077,"internal_node_id":"0.0-70.0","participant_id":"A1F5Y489IXNV1R"},{"rt":null,"stimulus":"<p style=\"font-size: 48px;\">+</p>","key_press":null,"Name":"fixation","trial_type":"html-keyboard-response","trial_index":71,"time_elapsed":262579,"internal_node_id":"0.0-71.0","participant_id":"A1F5Y489IXNV1R"},{"rt":null,"stimulus":"stimuli/33.jpg","button_pressed":null,"name":"noRating","trial_type":"image-button-response","trial_index":72,"time_elapsed":267581,"internal_node_id":"0.0-72.0","participant_id":"A1F5Y489IXNV1R"},{"rt":1652,"stimulus":"stimuli/33.jpg","button_pressed":"0","name":"valence","trial_type":"image-button-response","trial_index":73,"time_elapsed":269235,"internal_node_id":"0.0-73.0","participant_id":"A1F5Y489IXNV1R"},{"rt":3372,"response":"76","name":"rating","trial_type":"image-slider-response","trial_index":74,"time_elapsed":272610,"internal_node_id":"0.0-74.0","participant_id":"A1F5Y489IXNV1R"},{"rt":2072,"stimulus":"stimuli/33.jpg","button_pressed":"0","name":"emotionType","trial_type":"image-button-response","trial_index":75,"time_elapsed":274686,"internal_node_id":"0.0-75.0","participant_id":"A1F5Y489IXNV1R"},{"rt":null,"stimulus":"<p style=\"font-size: 48px;\">+</p>","key_press":null,"Name":"fixation","trial_type":"html-keyboard-response","trial_index":76,"time_elapsed":276192,"internal_node_id":"0.0-76.0","participant_id":"A1F5Y489IXNV1R"},{"rt":null,"stimulus":"stimuli/68.jpg","button_pressed":null,"name":"noRating","trial_type":"image-button-response","trial_index":77,"time_elapsed":281194,"internal_node_id":"0.0-77.0","participant_id":"A1F5Y489IXNV1R"},{"rt":15259,"stimulus":"stimuli/68.jpg","button_pressed":"0","name":"valence","trial_type":"image-button-response","trial_index":78,"time_elapsed":296455,"internal_node_id":"0.0-78.0","participant_id":"A1F5Y489IXNV1R"},{"rt":4075,"response":"79","name":"rating","trial_type":"image-slider-response","trial_index":79,"time_elapsed":300534,"internal_node_id":"0.0-79.0","participant_id":"A1F5Y489IXNV1R"},{"rt":1909,"stimulus":"stimuli/68.jpg","button_pressed":"0","name":"emotionType","trial_type":"image-button-response","trial_index":80,"time_elapsed":302446,"internal_node_id":"0.0-80.0","participant_id":"A1F5Y489IXNV1R"},{"rt":null,"stimulus":"<p style=\"font-size: 48px;\">+</p>","key_press":null,"Name":"fixation","trial_type":"html-keyboard-response","trial_index":81,"time_elapsed":303952,"internal_node_id":"0.0-81.0","participant_id":"A1F5Y489IXNV1R"},{"rt":null,"stimulus":"stimuli/43.jpg","button_pressed":null,"name":"noRating","trial_type":"image-button-response","trial_index":82,"time_elapsed":308954,"internal_node_id":"0.0-82.0","participant_id":"A1F5Y489IXNV1R"},{"rt":14793,"stimulus":"stimuli/43.jpg","button_pressed":"0","name":"valence","trial_type":"image-button-response","trial_index":83,"time_elapsed":323749,"internal_node_id":"0.0-83.0","participant_id":"A1F5Y489IXNV1R"},{"rt":3779,"response":"84","name":"rating","trial_type":"image-slider-response","trial_index":84,"time_elapsed":327532,"internal_node_id":"0.0-84.0","participant_id":"A1F5Y489IXNV1R"},{"rt":2843,"stimulus":"stimuli/43.jpg","button_pressed":"0","name":"emotionType","trial_type":"image-button-response","trial_index":85,"time_elapsed":330379,"internal_node_id":"0.0-85.0","participant_id":"A1F5Y489IXNV1R"},{"rt":6018,"responses":"{\"Q0\":\"our\"}","trial_type":"survey-text","trial_index":86,"time_elapsed":336397,"internal_node_id":"0.0-86.0-0.0","participant_id":"A1F5Y489IXNV1R"},{"rt":null,"stimulus":"<p style=\"font-size: 48px;\">+</p>","key_press":null,"Name":"fixation","trial_type":"html-keyboard-response","trial_index":87,"time_elapsed":337399,"internal_node_id":"0.0-87.0","participant_id":"A1F5Y489IXNV1R"},{"rt":null,"stimulus":"stimuli/8.jpg","button_pressed":null,"name":"noRating","trial_type":"image-button-response","trial_index":88,"time_elapsed":342401,"internal_node_id":"0.0-88.0","participant_id":"A1F5Y489IXNV1R"},{"rt":2172,"stimulus":"stimuli/8.jpg","button_pressed":"0","name":"valence","trial_type":"image-button-response","trial_index":89,"time_elapsed":344573,"internal_node_id":"0.0-89.0","participant_id":"A1F5Y489IXNV1R"},{"rt":3257,"response":"76","name":"rating","trial_type":"image-slider-response","trial_index":90,"time_elapsed":347831,"internal_node_id":"0.0-90.0","participant_id":"A1F5Y489IXNV1R"},{"rt":9491,"stimulus":"stimuli/8.jpg","button_pressed":"0","name":"emotionType","trial_type":"image-button-response","trial_index":91,"time_elapsed":357327,"internal_node_id":"0.0-91.0","participant_id":"A1F5Y489IXNV1R"},{"rt":null,"stimulus":"<p style=\"font-size: 48px;\">+</p>","key_press":null,"Name":"fixation","trial_type":"html-keyboard-response","trial_index":92,"time_elapsed":358830,"internal_node_id":"0.0-92.0","participant_id":"A1F5Y489IXNV1R"},{"rt":null,"stimulus":"stimuli/13.jpg","button_pressed":null,"name":"noRating","trial_type":"image-button-response","trial_index":93,"time_elapsed":363833,"internal_node_id":"0.0-93.0","participant_id":"A1F5Y489IXNV1R"},{"rt":2026,"stimulus":"stimuli/13.jpg","button_pressed":"0","name":"valence","trial_type":"image-button-response","trial_index":94,"time_elapsed":365861,"internal_node_id":"0.0-94.0","participant_id":"A1F5Y489IXNV1R"},{"rt":3644,"response":"86","name":"rating","trial_type":"image-slider-response","trial_index":95,"time_elapsed":369508,"internal_node_id":"0.0-95.0","participant_id":"A1F5Y489IXNV1R"},{"rt":5348,"stimulus":"stimuli/13.jpg","button_pressed":"0","name":"emotionType","trial_type":"image-button-response","trial_index":96,"time_elapsed":374860,"internal_node_id":"0.0-96.0","participant_id":"A1F5Y489IXNV1R"},{"rt":null,"stimulus":"<p style=\"font-size: 48px;\">+</p>","key_press":null,"Name":"fixation","trial_type":"html-keyboard-response","trial_index":97,"time_elapsed":376364,"internal_node_id":"0.0-97.0","participant_id":"A1F5Y489IXNV1R"},{"rt":null,"stimulus":"stimuli/60.jpg","button_pressed":null,"name":"noRating","trial_type":"image-button-response","trial_index":98,"time_elapsed":381369,"internal_node_id":"0.0-98.0","participant_id":"A1F5Y489IXNV1R"},{"rt":3200,"stimulus":"stimuli/60.jpg","button_pressed":"0","name":"valence","trial_type":"image-button-response","trial_index":99,"time_elapsed":384571,"internal_node_id":"0.0-99.0","participant_id":"A1F5Y489IXNV1R"},{"rt":11473,"response":"71","name":"rating","trial_type":"image-slider-response","trial_index":100,"time_elapsed":396048,"internal_node_id":"0.0-100.0","participant_id":"A1F5Y489IXNV1R"},{"rt":2229,"stimulus":"stimuli/60.jpg","button_pressed":"0","name":"emotionType","trial_type":"image-button-response","trial_index":101,"time_elapsed":398281,"internal_node_id":"0.0-101.0","participant_id":"A1F5Y489IXNV1R"},{"rt":null,"stimulus":"<p style=\"font-size: 48px;\">+</p>","key_press":null,"Name":"fixation","trial_type":"html-keyboard-response","trial_index":102,"time_elapsed":399284,"internal_node_id":"0.0-102.0","participant_id":"A1F5Y489IXNV1R"},{"rt":null,"stimulus":"stimuli/24.jpg","button_pressed":null,"name":"noRating","trial_type":"image-button-response","trial_index":103,"time_elapsed":404287,"internal_node_id":"0.0-103.0","participant_id":"A1F5Y489IXNV1R"},{"rt":1343,"stimulus":"stimuli/24.jpg","button_pressed":"0","name":"valence","trial_type":"image-button-response","trial_index":104,"time_elapsed":405632,"internal_node_id":"0.0-104.0","participant_id":"A1F5Y489IXNV1R"},{"rt":3587,"response":"91","name":"rating","trial_type":"image-slider-response","trial_index":105,"time_elapsed":409223,"internal_node_id":"0.0-105.0","participant_id":"A1F5Y489IXNV1R"},{"rt":2261,"stimulus":"stimuli/24.jpg","button_pressed":"0","name":"emotionType","trial_type":"image-button-response","trial_index":106,"time_elapsed":411487,"internal_node_id":"0.0-106.0","participant_id":"A1F5Y489IXNV1R"},{"rt":null,"stimulus":"<p style=\"font-size: 48px;\">+</p>","key_press":null,"Name":"fixation","trial_type":"html-keyboard-response","trial_index":107,"time_elapsed":412491,"internal_node_id":"0.0-107.0","participant_id":"A1F5Y489IXNV1R"},{"rt":null,"stimulus":"stimuli/28.jpg","button_pressed":null,"name":"noRating","trial_type":"image-button-response","trial_index":108,"time_elapsed":417493,"internal_node_id":"0.0-108.0","participant_id":"A1F5Y489IXNV1R"},{"rt":3263,"stimulus":"stimuli/28.jpg","button_pressed":"0","name":"valence","trial_type":"image-button-response","trial_index":109,"time_elapsed":420757,"internal_node_id":"0.0-109.0","participant_id":"A1F5Y489IXNV1R"},{"rt":3253,"response":"83","name":"rating","trial_type":"image-slider-response","trial_index":110,"time_elapsed":424014,"internal_node_id":"0.0-110.0","participant_id":"A1F5Y489IXNV1R"},{"rt":2979,"stimulus":"stimuli/28.jpg","button_pressed":"0","name":"emotionType","trial_type":"image-button-response","trial_index":111,"time_elapsed":426996,"internal_node_id":"0.0-111.0","participant_id":"A1F5Y489IXNV1R"},{"rt":14732,"responses":"{\"Q0\":\"course\"}","trial_type":"survey-text","trial_index":112,"time_elapsed":441733,"internal_node_id":"0.0-112.0-0.0","participant_id":"A1F5Y489IXNV1R"},{"rt":null,"stimulus":"<p style=\"font-size: 48px;\">+</p>","key_press":null,"Name":"fixation","trial_type":"html-keyboard-response","trial_index":113,"time_elapsed":442737,"internal_node_id":"0.0-113.0","participant_id":"A1F5Y489IXNV1R"},{"rt":null,"stimulus":"stimuli/55.jpg","button_pressed":null,"name":"noRating","trial_type":"image-button-response","trial_index":114,"time_elapsed":447740,"internal_node_id":"0.0-114.0","participant_id":"A1F5Y489IXNV1R"},{"rt":1508,"stimulus":"stimuli/55.jpg","button_pressed":"0","name":"valence","trial_type":"image-button-response","trial_index":115,"time_elapsed":449251,"internal_node_id":"0.0-115.0","participant_id":"A1F5Y489IXNV1R"},{"rt":5041,"response":"72","name":"rating","trial_type":"image-slider-response","trial_index":116,"time_elapsed":454296,"internal_node_id":"0.0-116.0","participant_id":"A1F5Y489IXNV1R"},{"rt":1732,"stimulus":"stimuli/55.jpg","button_pressed":"0","name":"emotionType","trial_type":"image-button-response","trial_index":117,"time_elapsed":456032,"internal_node_id":"0.0-117.0","participant_id":"A1F5Y489IXNV1R"},{"rt":null,"stimulus":"<p style=\"font-size: 48px;\">+</p>","key_press":null,"Name":"fixation","trial_type":"html-keyboard-response","trial_index":118,"time_elapsed":457036,"internal_node_id":"0.0-118.0","participant_id":"A1F5Y489IXNV1R"},{"rt":null,"stimulus":"stimuli/57.jpg","button_pressed":null,"name":"noRating","trial_type":"image-button-response","trial_index":119,"time_elapsed":462045,"internal_node_id":"0.0-119.0","participant_id":"A1F5Y489IXNV1R"},{"rt":1730,"stimulus":"stimuli/57.jpg","button_pressed":"0","name":"valence","trial_type":"image-button-response","trial_index":120,"time_elapsed":463775,"internal_node_id":"0.0-120.0","participant_id":"A1F5Y489IXNV1R"},{"rt":10171,"response":"74","name":"rating","trial_type":"image-slider-response","trial_index":121,"time_elapsed":473951,"internal_node_id":"0.0-121.0","participant_id":"A1F5Y489IXNV1R"},{"rt":1771,"stimulus":"stimuli/57.jpg","button_pressed":"0","name":"emotionType","trial_type":"image-button-response","trial_index":122,"time_elapsed":475727,"internal_node_id":"0.0-122.0","participant_id":"A1F5Y489IXNV1R"},{"rt":null,"stimulus":"<p style=\"font-size: 48px;\">+</p>","key_press":null,"Name":"fixation","trial_type":"html-keyboard-response","trial_index":123,"time_elapsed":477230,"internal_node_id":"0.0-123.0","participant_id":"A1F5Y489IXNV1R"},{"rt":null,"stimulus":"stimuli/10.jpg","button_pressed":null,"name":"noRating","trial_type":"image-button-response","trial_index":124,"time_elapsed":482233,"internal_node_id":"0.0-124.0","participant_id":"A1F5Y489IXNV1R"},{"rt":1817,"stimulus":"stimuli/10.jpg","button_pressed":"0","name":"valence","trial_type":"image-button-response","trial_index":125,"time_elapsed":484052,"internal_node_id":"0.0-125.0","participant_id":"A1F5Y489IXNV1R"},{"rt":2835,"response":"72","name":"rating","trial_type":"image-slider-response","trial_index":126,"time_elapsed":486893,"internal_node_id":"0.0-126.0","participant_id":"A1F5Y489IXNV1R"},{"rt":1708,"stimulus":"stimuli/10.jpg","button_pressed":"0","name":"emotionType","trial_type":"image-button-response","trial_index":127,"time_elapsed":488605,"internal_node_id":"0.0-127.0","participant_id":"A1F5Y489IXNV1R"},{"rt":null,"stimulus":"<p style=\"font-size: 48px;\">+</p>","key_press":null,"Name":"fixation","trial_type":"html-keyboard-response","trial_index":128,"time_elapsed":490108,"internal_node_id":"0.0-128.0","participant_id":"A1F5Y489IXNV1R"},{"rt":null,"stimulus":"stimuli/56.jpg","button_pressed":null,"name":"noRating","trial_type":"image-button-response","trial_index":129,"time_elapsed":495110,"internal_node_id":"0.0-129.0","participant_id":"A1F5Y489IXNV1R"},{"rt":1689,"stimulus":"stimuli/56.jpg","button_pressed":"0","name":"valence","trial_type":"image-button-response","trial_index":130,"time_elapsed":496801,"internal_node_id":"0.0-130.0","participant_id":"A1F5Y489IXNV1R"},{"rt":3328,"response":"82","name":"rating","trial_type":"image-slider-response","trial_index":131,"time_elapsed":500129,"internal_node_id":"0.0-131.0","participant_id":"A1F5Y489IXNV1R"},{"rt":2371,"stimulus":"stimuli/56.jpg","button_pressed":"0","name":"emotionType","trial_type":"image-button-response","trial_index":132,"time_elapsed":502505,"internal_node_id":"0.0-132.0","participant_id":"A1F5Y489IXNV1R"},{"rt":null,"stimulus":"<p style=\"font-size: 48px;\">+</p>","key_press":null,"Name":"fixation","trial_type":"html-keyboard-response","trial_index":133,"time_elapsed":504007,"internal_node_id":"0.0-133.0","participant_id":"A1F5Y489IXNV1R"},{"rt":null,"stimulus":"stimuli/30.jpg","button_pressed":null,"name":"noRating","trial_type":"image-button-response","trial_index":134,"time_elapsed":509008,"internal_node_id":"0.0-134.0","participant_id":"A1F5Y489IXNV1R"},{"rt":1479,"stimulus":"stimuli/30.jpg","button_pressed":"0","name":"valence","trial_type":"image-button-response","trial_index":135,"time_elapsed":510489,"internal_node_id":"0.0-135.0","participant_id":"A1F5Y489IXNV1R"},{"rt":3227,"response":"74","name":"rating","trial_type":"image-slider-response","trial_index":136,"time_elapsed":513721,"internal_node_id":"0.0-136.0","participant_id":"A1F5Y489IXNV1R"},{"rt":2716,"stimulus":"stimuli/30.jpg","button_pressed":"0","name":"emotionType","trial_type":"image-button-response","trial_index":137,"time_elapsed":516441,"internal_node_id":"0.0-137.0","participant_id":"A1F5Y489IXNV1R"},{"rt":5458,"responses":"{\"Q0\":\"we\"}","trial_type":"survey-text","trial_index":138,"time_elapsed":521901,"internal_node_id":"0.0-138.0-0.0","participant_id":"A1F5Y489IXNV1R"},{"rt":null,"stimulus":"<p style=\"font-size: 48px;\">+</p>","key_press":null,"Name":"fixation","trial_type":"html-keyboard-response","trial_index":139,"time_elapsed":523401,"internal_node_id":"0.0-139.0","participant_id":"A1F5Y489IXNV1R"},{"rt":null,"stimulus":"stimuli/45.jpg","button_pressed":null,"name":"noRating","trial_type":"image-button-response","trial_index":140,"time_elapsed":528404,"internal_node_id":"0.0-140.0","participant_id":"A1F5Y489IXNV1R"},{"rt":29928,"stimulus":"stimuli/45.jpg","button_pressed":"0","name":"valence","trial_type":"image-button-response","trial_index":141,"time_elapsed":558334,"internal_node_id":"0.0-141.0","participant_id":"A1F5Y489IXNV1R"},{"rt":3846,"response":"79","name":"rating","trial_type":"image-slider-response","trial_index":142,"time_elapsed":562184,"internal_node_id":"0.0-142.0","participant_id":"A1F5Y489IXNV1R"},{"rt":3466,"stimulus":"stimuli/45.jpg","button_pressed":"1","name":"emotionType","trial_type":"image-button-response","trial_index":143,"time_elapsed":565653,"internal_node_id":"0.0-143.0","participant_id":"A1F5Y489IXNV1R"},{"rt":null,"stimulus":"<p style=\"font-size: 48px;\">+</p>","key_press":null,"Name":"fixation","trial_type":"html-keyboard-response","trial_index":144,"time_elapsed":566155,"internal_node_id":"0.0-144.0","participant_id":"A1F5Y489IXNV1R"},{"rt":null,"stimulus":"stimuli/4.jpg","button_pressed":null,"name":"noRating","trial_type":"image-button-response","trial_index":145,"time_elapsed":571157,"internal_node_id":"0.0-145.0","participant_id":"A1F5Y489IXNV1R"},{"rt":1856,"stimulus":"stimuli/4.jpg","button_pressed":"0","name":"valence","trial_type":"image-button-response","trial_index":146,"time_elapsed":573016,"internal_node_id":"0.0-146.0","participant_id":"A1F5Y489IXNV1R"},{"rt":1273,"response":"0","name":"rating","trial_type":"image-slider-response","trial_index":147,"time_elapsed":574292,"internal_node_id":"0.0-147.0","participant_id":"A1F5Y489IXNV1R"},{"rt":1954,"stimulus":"stimuli/4.jpg","button_pressed":"0","name":"emotionType","trial_type":"image-button-response","trial_index":148,"time_elapsed":578464,"internal_node_id":"0.0-148.0","participant_id":"A1F5Y489IXNV1R"},{"rt":null,"stimulus":"<p style=\"font-size: 48px;\">+</p>","key_press":null,"Name":"fixation","trial_type":"html-keyboard-response","trial_index":149,"time_elapsed":579466,"internal_node_id":"0.0-149.0","participant_id":"A1F5Y489IXNV1R"},{"rt":null,"stimulus":"stimuli/47.jpg","button_pressed":null,"name":"noRating","trial_type":"image-button-response","trial_index":150,"time_elapsed":584469,"internal_node_id":"0.0-150.0","participant_id":"A1F5Y489IXNV1R"},{"rt":5726,"stimulus":"stimuli/47.jpg","button_pressed":"0","name":"valence","trial_type":"image-button-response","trial_index":151,"time_elapsed":590197,"internal_node_id":"0.0-151.0","participant_id":"A1F5Y489IXNV1R"},{"rt":3892,"response":"74","name":"rating","trial_type":"image-slider-response","trial_index":152,"time_elapsed":594093,"internal_node_id":"0.0-152.0","participant_id":"A1F5Y489IXNV1R"},{"rt":2116,"stimulus":"stimuli/47.jpg","button_pressed":"0","name":"emotionType","trial_type":"image-button-response","trial_index":153,"time_elapsed":596214,"internal_node_id":"0.0-153.0","participant_id":"A1F5Y489IXNV1R"},{"rt":null,"stimulus":"<p style=\"font-size: 48px;\">+</p>","key_press":null,"Name":"fixation","trial_type":"html-keyboard-response","trial_index":154,"time_elapsed":596716,"internal_node_id":"0.0-154.0","participant_id":"A1F5Y489IXNV1R"},{"rt":null,"stimulus":"stimuli/69.jpg","button_pressed":null,"name":"noRating","trial_type":"image-button-response","trial_index":155,"time_elapsed":601717,"internal_node_id":"0.0-155.0","participant_id":"A1F5Y489IXNV1R"},{"rt":1524,"stimulus":"stimuli/69.jpg","button_pressed":"0","name":"valence","trial_type":"image-button-response","trial_index":156,"time_elapsed":603244,"internal_node_id":"0.0-156.0","participant_id":"A1F5Y489IXNV1R"},{"rt":4531,"response":"0","name":"rating","trial_type":"image-slider-response","trial_index":157,"time_elapsed":607779,"internal_node_id":"0.0-157.0","participant_id":"A1F5Y489IXNV1R"},{"rt":2396,"stimulus":"stimuli/69.jpg","button_pressed":"0","name":"emotionType","trial_type":"image-button-response","trial_index":158,"time_elapsed":612066,"internal_node_id":"0.0-158.0","participant_id":"A1F5Y489IXNV1R"},{"rt":null,"stimulus":"<p style=\"font-size: 48px;\">+</p>","key_press":null,"Name":"fixation","trial_type":"html-keyboard-response","trial_index":159,"time_elapsed":613071,"internal_node_id":"0.0-159.0","participant_id":"A1F5Y489IXNV1R"},{"rt":null,"stimulus":"stimuli/31.jpg","button_pressed":null,"name":"noRating","trial_type":"image-button-response","trial_index":160,"time_elapsed":618073,"internal_node_id":"0.0-160.0","participant_id":"A1F5Y489IXNV1R"},{"rt":13269,"stimulus":"stimuli/31.jpg","button_pressed":"0","name":"valence","trial_type":"image-button-response","trial_index":161,"time_elapsed":631342,"internal_node_id":"0.0-161.0","participant_id":"A1F5Y489IXNV1R"},{"rt":3014,"response":"73","name":"rating","trial_type":"image-slider-response","trial_index":162,"time_elapsed":634360,"internal_node_id":"0.0-162.0","participant_id":"A1F5Y489IXNV1R"},{"rt":33567,"stimulus":"stimuli/31.jpg","button_pressed":"0","name":"emotionType","trial_type":"image-button-response","trial_index":163,"time_elapsed":667931,"internal_node_id":"0.0-163.0","participant_id":"A1F5Y489IXNV1R"},{"rt":3020,"stimulus":"stimuli/ins/Slide8.JPG","button_pressed":"0","trial_type":"image-button-response","trial_index":164,"time_elapsed":670955,"internal_node_id":"0.0-164.0","participant_id":"A1F5Y489IXNV1R"}]