[{"rt":4897,"responses":"{\"Q0\":\"A1LA6CIGBNDOH9\"}","trial_type":"survey-text","trial_index":0,"time_elapsed":4900,"internal_node_id":"0.0-0.0-0.0","participant_id":"A1LA6CIGBNDOH9"},{"rt":6530,"stimulus":"stimuli/ins/Slide1.JPG","button_pressed":"0","Name":"instructions","trial_type":"image-button-response","trial_index":1,"time_elapsed":11431,"internal_node_id":"0.0-1.0","participant_id":"A1LA6CIGBNDOH9"},{"rt":5335,"stimulus":"stimuli/ins/Slide2.JPG","button_pressed":"0","Name":"instructions","trial_type":"image-button-response","trial_index":2,"time_elapsed":16767,"internal_node_id":"0.0-2.0","participant_id":"A1LA6CIGBNDOH9"},{"rt":9994,"stimulus":"stimuli/ins/Slide3.JPG","button_pressed":"0","Name":"instructions","trial_type":"image-button-response","trial_index":3,"time_elapsed":26761,"internal_node_id":"0.0-3.0","participant_id":"A1LA6CIGBNDOH9"},{"rt":6506,"stimulus":"stimuli/ins/Slide4.JPG","button_pressed":"0","Name":"instructions","trial_type":"image-button-response","trial_index":4,"time_elapsed":33267,"internal_node_id":"0.0-4.0","participant_id":"A1LA6CIGBNDOH9"},{"rt":3546,"stimulus":"stimuli/ins/Slide5.JPG","button_pressed":"0","Name":"instructions","trial_type":"image-button-response","trial_index":5,"time_elapsed":36813,"internal_node_id":"0.0-5.0","participant_id":"A1LA6CIGBNDOH9"},{"rt":7000,"stimulus":"stimuli/ins/Slide6.JPG","button_pressed":"0","Name":"instructions","trial_type":"image-button-response","trial_index":6,"time_elapsed":43813,"internal_node_id":"0.0-6.0","participant_id":"A1LA6CIGBNDOH9"},{"rt":2228,"stimulus":"stimuli/ins/Slide7.JPG","button_pressed":"0","Name":"instructions","trial_type":"image-button-response","trial_index":7,"time_elapsed":46041,"internal_node_id":"0.0-7.0","participant_id":"A1LA6CIGBNDOH9"},{"rt":5523,"responses":"{\"Q0\":\"but\"}","trial_type":"survey-text","trial_index":8,"time_elapsed":51565,"internal_node_id":"0.0-8.0-0.0","participant_id":"A1LA6CIGBNDOH9"},{"rt":null,"stimulus":"<p style=\"font-size: 48px;\">+</p>","key_press":null,"Name":"fixation","trial_type":"html-keyboard-response","trial_index":9,"time_elapsed":52568,"internal_node_id":"0.0-9.0","participant_id":"A1LA6CIGBNDOH9"},{"rt":null,"stimulus":"stimuli/37.jpg","button_pressed":null,"name":"noRating","trial_type":"image-button-response","trial_index":10,"time_elapsed":57570,"internal_node_id":"0.0-10.0","participant_id":"A1LA6CIGBNDOH9"},{"rt":2001,"stimulus":"stimuli/37.jpg","button_pressed":"0","name":"valence","trial_type":"image-button-response","trial_index":11,"time_elapsed":59572,"internal_node_id":"0.0-11.0","participant_id":"A1LA6CIGBNDOH9"},{"rt":9006,"response":"83","name":"rating","trial_type":"image-slider-response","trial_index":12,"time_elapsed":68579,"internal_node_id":"0.0-12.0","participant_id":"A1LA6CIGBNDOH9"},{"rt":4327,"stimulus":"stimuli/37.jpg","button_pressed":"0","name":"emotionType","trial_type":"image-button-response","trial_index":13,"time_elapsed":72907,"internal_node_id":"0.0-13.0","participant_id":"A1LA6CIGBNDOH9"},{"rt":null,"stimulus":"<p style=\"font-size: 48px;\">+</p>","key_press":null,"Name":"fixation","trial_type":"html-keyboard-response","trial_index":14,"time_elapsed":73409,"internal_node_id":"0.0-14.0","participant_id":"A1LA6CIGBNDOH9"},{"rt":null,"stimulus":"stimuli/50.jpg","button_pressed":null,"name":"noRating","trial_type":"image-button-response","trial_index":15,"time_elapsed":78410,"internal_node_id":"0.0-15.0","participant_id":"A1LA6CIGBNDOH9"},{"rt":1483,"stimulus":"stimuli/50.jpg","button_pressed":"0","name":"valence","trial_type":"image-button-response","trial_index":16,"time_elapsed":79894,"internal_node_id":"0.0-16.0","participant_id":"A1LA6CIGBNDOH9"},{"rt":3630,"response":"85","name":"rating","trial_type":"image-slider-response","trial_index":17,"time_elapsed":83525,"internal_node_id":"0.0-17.0","participant_id":"A1LA6CIGBNDOH9"},{"rt":3373,"stimulus":"stimuli/50.jpg","button_pressed":"1","name":"emotionType","trial_type":"image-button-response","trial_index":18,"time_elapsed":86899,"internal_node_id":"0.0-18.0","participant_id":"A1LA6CIGBNDOH9"},{"rt":null,"stimulus":"<p style=\"font-size: 48px;\">+</p>","key_press":null,"Name":"fixation","trial_type":"html-keyboard-response","trial_index":19,"time_elapsed":87400,"internal_node_id":"0.0-19.0","participant_id":"A1LA6CIGBNDOH9"},{"rt":null,"stimulus":"stimuli/22.jpg","button_pressed":null,"name":"noRating","trial_type":"image-button-response","trial_index":20,"time_elapsed":92401,"internal_node_id":"0.0-20.0","participant_id":"A1LA6CIGBNDOH9"},{"rt":1522,"stimulus":"stimuli/22.jpg","button_pressed":"0","name":"valence","trial_type":"image-button-response","trial_index":21,"time_elapsed":93923,"internal_node_id":"0.0-21.0","participant_id":"A1LA6CIGBNDOH9"},{"rt":6219,"response":"87","name":"rating","trial_type":"image-slider-response","trial_index":22,"time_elapsed":100143,"internal_node_id":"0.0-22.0","participant_id":"A1LA6CIGBNDOH9"},{"rt":1649,"stimulus":"stimuli/22.jpg","button_pressed":"1","name":"emotionType","trial_type":"image-button-response","trial_index":23,"time_elapsed":101792,"internal_node_id":"0.0-23.0","participant_id":"A1LA6CIGBNDOH9"},{"rt":null,"stimulus":"<p style=\"font-size: 48px;\">+</p>","key_press":null,"Name":"fixation","trial_type":"html-keyboard-response","trial_index":24,"time_elapsed":102294,"internal_node_id":"0.0-24.0","participant_id":"A1LA6CIGBNDOH9"},{"rt":null,"stimulus":"stimuli/10.jpg","button_pressed":null,"name":"noRating","trial_type":"image-button-response","trial_index":25,"time_elapsed":107296,"internal_node_id":"0.0-25.0","participant_id":"A1LA6CIGBNDOH9"},{"rt":1713,"stimulus":"stimuli/10.jpg","button_pressed":"0","name":"valence","trial_type":"image-button-response","trial_index":26,"time_elapsed":109010,"internal_node_id":"0.0-26.0","participant_id":"A1LA6CIGBNDOH9"},{"rt":5803,"response":"68","name":"rating","trial_type":"image-slider-response","trial_index":27,"time_elapsed":114814,"internal_node_id":"0.0-27.0","participant_id":"A1LA6CIGBNDOH9"},{"rt":2101,"stimulus":"stimuli/10.jpg","button_pressed":"1","name":"emotionType","trial_type":"image-button-response","trial_index":28,"time_elapsed":116915,"internal_node_id":"0.0-28.0","participant_id":"A1LA6CIGBNDOH9"},{"rt":null,"stimulus":"<p style=\"font-size: 48px;\">+</p>","key_press":null,"Name":"fixation","trial_type":"html-keyboard-response","trial_index":29,"time_elapsed":118418,"internal_node_id":"0.0-29.0","participant_id":"A1LA6CIGBNDOH9"},{"rt":null,"stimulus":"stimuli/62.jpg","button_pressed":null,"name":"noRating","trial_type":"image-button-response","trial_index":30,"time_elapsed":123420,"internal_node_id":"0.0-30.0","participant_id":"A1LA6CIGBNDOH9"},{"rt":1228,"stimulus":"stimuli/62.jpg","button_pressed":"0","name":"valence","trial_type":"image-button-response","trial_index":31,"time_elapsed":124649,"internal_node_id":"0.0-31.0","participant_id":"A1LA6CIGBNDOH9"},{"rt":4515,"response":"63","name":"rating","trial_type":"image-slider-response","trial_index":32,"time_elapsed":129165,"internal_node_id":"0.0-32.0","participant_id":"A1LA6CIGBNDOH9"},{"rt":1647,"stimulus":"stimuli/62.jpg","button_pressed":"0","name":"emotionType","trial_type":"image-button-response","trial_index":33,"time_elapsed":130813,"internal_node_id":"0.0-33.0","participant_id":"A1LA6CIGBNDOH9"},{"rt":4157,"responses":"{\"Q0\":\"rock\"}","trial_type":"survey-text","trial_index":34,"time_elapsed":134971,"internal_node_id":"0.0-34.0-0.0","participant_id":"A1LA6CIGBNDOH9"},{"rt":null,"stimulus":"<p style=\"font-size: 48px;\">+</p>","key_press":null,"Name":"fixation","trial_type":"html-keyboard-response","trial_index":35,"time_elapsed":135473,"internal_node_id":"0.0-35.0","participant_id":"A1LA6CIGBNDOH9"},{"rt":null,"stimulus":"stimuli/53.jpg","button_pressed":null,"name":"noRating","trial_type":"image-button-response","trial_index":36,"time_elapsed":140475,"internal_node_id":"0.0-36.0","participant_id":"A1LA6CIGBNDOH9"},{"rt":1081,"stimulus":"stimuli/53.jpg","button_pressed":"0","name":"valence","trial_type":"image-button-response","trial_index":37,"time_elapsed":141558,"internal_node_id":"0.0-37.0","participant_id":"A1LA6CIGBNDOH9"},{"rt":4209,"response":"67","name":"rating","trial_type":"image-slider-response","trial_index":38,"time_elapsed":145767,"internal_node_id":"0.0-38.0","participant_id":"A1LA6CIGBNDOH9"},{"rt":1531,"stimulus":"stimuli/53.jpg","button_pressed":"1","name":"emotionType","trial_type":"image-button-response","trial_index":39,"time_elapsed":147299,"internal_node_id":"0.0-39.0","participant_id":"A1LA6CIGBNDOH9"},{"rt":null,"stimulus":"<p style=\"font-size: 48px;\">+</p>","key_press":null,"Name":"fixation","trial_type":"html-keyboard-response","trial_index":40,"time_elapsed":147801,"internal_node_id":"0.0-40.0","participant_id":"A1LA6CIGBNDOH9"},{"rt":null,"stimulus":"stimuli/42.jpg","button_pressed":null,"name":"noRating","trial_type":"image-button-response","trial_index":41,"time_elapsed":152802,"internal_node_id":"0.0-41.0","participant_id":"A1LA6CIGBNDOH9"},{"rt":4129,"stimulus":"stimuli/42.jpg","button_pressed":"0","name":"valence","trial_type":"image-button-response","trial_index":42,"time_elapsed":156931,"internal_node_id":"0.0-42.0","participant_id":"A1LA6CIGBNDOH9"},{"rt":6515,"response":"37","name":"rating","trial_type":"image-slider-response","trial_index":43,"time_elapsed":163449,"internal_node_id":"0.0-43.0","participant_id":"A1LA6CIGBNDOH9"},{"rt":4989,"stimulus":"stimuli/42.jpg","button_pressed":"0","name":"emotionType","trial_type":"image-button-response","trial_index":44,"time_elapsed":168439,"internal_node_id":"0.0-44.0","participant_id":"A1LA6CIGBNDOH9"},{"rt":null,"stimulus":"<p style=\"font-size: 48px;\">+</p>","key_press":null,"Name":"fixation","trial_type":"html-keyboard-response","trial_index":45,"time_elapsed":169440,"internal_node_id":"0.0-45.0","participant_id":"A1LA6CIGBNDOH9"},{"rt":null,"stimulus":"stimuli/14.jpg","button_pressed":null,"name":"noRating","trial_type":"image-button-response","trial_index":46,"time_elapsed":174442,"internal_node_id":"0.0-46.0","participant_id":"A1LA6CIGBNDOH9"},{"rt":1262,"stimulus":"stimuli/14.jpg","button_pressed":"0","name":"valence","trial_type":"image-button-response","trial_index":47,"time_elapsed":175705,"internal_node_id":"0.0-47.0","participant_id":"A1LA6CIGBNDOH9"},{"rt":5851,"response":"66","name":"rating","trial_type":"image-slider-response","trial_index":48,"time_elapsed":181557,"internal_node_id":"0.0-48.0","participant_id":"A1LA6CIGBNDOH9"},{"rt":1280,"stimulus":"stimuli/14.jpg","button_pressed":"1","name":"emotionType","trial_type":"image-button-response","trial_index":49,"time_elapsed":182838,"internal_node_id":"0.0-49.0","participant_id":"A1LA6CIGBNDOH9"},{"rt":null,"stimulus":"<p style=\"font-size: 48px;\">+</p>","key_press":null,"Name":"fixation","trial_type":"html-keyboard-response","trial_index":50,"time_elapsed":184339,"internal_node_id":"0.0-50.0","participant_id":"A1LA6CIGBNDOH9"},{"rt":null,"stimulus":"stimuli/63.jpg","button_pressed":null,"name":"noRating","trial_type":"image-button-response","trial_index":51,"time_elapsed":189340,"internal_node_id":"0.0-51.0","participant_id":"A1LA6CIGBNDOH9"},{"rt":1169,"stimulus":"stimuli/63.jpg","button_pressed":"0","name":"valence","trial_type":"image-button-response","trial_index":52,"time_elapsed":190510,"internal_node_id":"0.0-52.0","participant_id":"A1LA6CIGBNDOH9"},{"rt":3116,"response":"55","name":"rating","trial_type":"image-slider-response","trial_index":53,"time_elapsed":193627,"internal_node_id":"0.0-53.0","participant_id":"A1LA6CIGBNDOH9"},{"rt":2194,"stimulus":"stimuli/63.jpg","button_pressed":"0","name":"emotionType","trial_type":"image-button-response","trial_index":54,"time_elapsed":195822,"internal_node_id":"0.0-54.0","participant_id":"A1LA6CIGBNDOH9"},{"rt":null,"stimulus":"<p style=\"font-size: 48px;\">+</p>","key_press":null,"Name":"fixation","trial_type":"html-keyboard-response","trial_index":55,"time_elapsed":197324,"internal_node_id":"0.0-55.0","participant_id":"A1LA6CIGBNDOH9"},{"rt":null,"stimulus":"stimuli/5.jpg","button_pressed":null,"name":"noRating","trial_type":"image-button-response","trial_index":56,"time_elapsed":202326,"internal_node_id":"0.0-56.0","participant_id":"A1LA6CIGBNDOH9"},{"rt":1153,"stimulus":"stimuli/5.jpg","button_pressed":"0","name":"valence","trial_type":"image-button-response","trial_index":57,"time_elapsed":203480,"internal_node_id":"0.0-57.0","participant_id":"A1LA6CIGBNDOH9"},{"rt":4045,"response":"67","name":"rating","trial_type":"image-slider-response","trial_index":58,"time_elapsed":207525,"internal_node_id":"0.0-58.0","participant_id":"A1LA6CIGBNDOH9"},{"rt":1537,"stimulus":"stimuli/5.jpg","button_pressed":"1","name":"emotionType","trial_type":"image-button-response","trial_index":59,"time_elapsed":209063,"internal_node_id":"0.0-59.0","participant_id":"A1LA6CIGBNDOH9"},{"rt":4883,"responses":"{\"Q0\":\"sky\"}","trial_type":"survey-text","trial_index":60,"time_elapsed":213948,"internal_node_id":"0.0-60.0-0.0","participant_id":"A1LA6CIGBNDOH9"},{"rt":null,"stimulus":"<p style=\"font-size: 48px;\">+</p>","key_press":null,"Name":"fixation","trial_type":"html-keyboard-response","trial_index":61,"time_elapsed":215450,"internal_node_id":"0.0-61.0","participant_id":"A1LA6CIGBNDOH9"},{"rt":null,"stimulus":"stimuli/56.jpg","button_pressed":null,"name":"noRating","trial_type":"image-button-response","trial_index":62,"time_elapsed":220453,"internal_node_id":"0.0-62.0","participant_id":"A1LA6CIGBNDOH9"},{"rt":1104,"stimulus":"stimuli/56.jpg","button_pressed":"0","name":"valence","trial_type":"image-button-response","trial_index":63,"time_elapsed":221558,"internal_node_id":"0.0-63.0","participant_id":"A1LA6CIGBNDOH9"},{"rt":6717,"response":"50","name":"rating","trial_type":"image-slider-response","trial_index":64,"time_elapsed":228275,"internal_node_id":"0.0-64.0","participant_id":"A1LA6CIGBNDOH9"},{"rt":2569,"stimulus":"stimuli/56.jpg","button_pressed":"1","name":"emotionType","trial_type":"image-button-response","trial_index":65,"time_elapsed":230845,"internal_node_id":"0.0-65.0","participant_id":"A1LA6CIGBNDOH9"},{"rt":null,"stimulus":"<p style=\"font-size: 48px;\">+</p>","key_press":null,"Name":"fixation","trial_type":"html-keyboard-response","trial_index":66,"time_elapsed":231846,"internal_node_id":"0.0-66.0","participant_id":"A1LA6CIGBNDOH9"},{"rt":null,"stimulus":"stimuli/6.jpg","button_pressed":null,"name":"noRating","trial_type":"image-button-response","trial_index":67,"time_elapsed":236847,"internal_node_id":"0.0-67.0","participant_id":"A1LA6CIGBNDOH9"},{"rt":1073,"stimulus":"stimuli/6.jpg","button_pressed":"0","name":"valence","trial_type":"image-button-response","trial_index":68,"time_elapsed":237924,"internal_node_id":"0.0-68.0","participant_id":"A1LA6CIGBNDOH9"},{"rt":2805,"response":"52","name":"rating","trial_type":"image-slider-response","trial_index":69,"time_elapsed":240729,"internal_node_id":"0.0-69.0","participant_id":"A1LA6CIGBNDOH9"},{"rt":1013,"stimulus":"stimuli/6.jpg","button_pressed":"0","name":"emotionType","trial_type":"image-button-response","trial_index":70,"time_elapsed":241744,"internal_node_id":"0.0-70.0","participant_id":"A1LA6CIGBNDOH9"},{"rt":null,"stimulus":"<p style=\"font-size: 48px;\">+</p>","key_press":null,"Name":"fixation","trial_type":"html-keyboard-response","trial_index":71,"time_elapsed":242245,"internal_node_id":"0.0-71.0","participant_id":"A1LA6CIGBNDOH9"},{"rt":null,"stimulus":"stimuli/3.jpg","button_pressed":null,"name":"noRating","trial_type":"image-button-response","trial_index":72,"time_elapsed":247247,"internal_node_id":"0.0-72.0","participant_id":"A1LA6CIGBNDOH9"},{"rt":1340,"stimulus":"stimuli/3.jpg","button_pressed":"0","name":"valence","trial_type":"image-button-response","trial_index":73,"time_elapsed":248588,"internal_node_id":"0.0-73.0","participant_id":"A1LA6CIGBNDOH9"},{"rt":3063,"response":"53","name":"rating","trial_type":"image-slider-response","trial_index":74,"time_elapsed":251652,"internal_node_id":"0.0-74.0","participant_id":"A1LA6CIGBNDOH9"},{"rt":1921,"stimulus":"stimuli/3.jpg","button_pressed":"0","name":"emotionType","trial_type":"image-button-response","trial_index":75,"time_elapsed":253573,"internal_node_id":"0.0-75.0","participant_id":"A1LA6CIGBNDOH9"},{"rt":null,"stimulus":"<p style=\"font-size: 48px;\">+</p>","key_press":null,"Name":"fixation","trial_type":"html-keyboard-response","trial_index":76,"time_elapsed":255075,"internal_node_id":"0.0-76.0","participant_id":"A1LA6CIGBNDOH9"},{"rt":null,"stimulus":"stimuli/19.jpg","button_pressed":null,"name":"noRating","trial_type":"image-button-response","trial_index":77,"time_elapsed":260078,"internal_node_id":"0.0-77.0","participant_id":"A1LA6CIGBNDOH9"},{"rt":1259,"stimulus":"stimuli/19.jpg","button_pressed":"0","name":"valence","trial_type":"image-button-response","trial_index":78,"time_elapsed":261338,"internal_node_id":"0.0-78.0","participant_id":"A1LA6CIGBNDOH9"},{"rt":4282,"response":"69","name":"rating","trial_type":"image-slider-response","trial_index":79,"time_elapsed":265620,"internal_node_id":"0.0-79.0","participant_id":"A1LA6CIGBNDOH9"},{"rt":1147,"stimulus":"stimuli/19.jpg","button_pressed":"1","name":"emotionType","trial_type":"image-button-response","trial_index":80,"time_elapsed":266767,"internal_node_id":"0.0-80.0","participant_id":"A1LA6CIGBNDOH9"},{"rt":null,"stimulus":"<p style=\"font-size: 48px;\">+</p>","key_press":null,"Name":"fixation","trial_type":"html-keyboard-response","trial_index":81,"time_elapsed":267270,"internal_node_id":"0.0-81.0","participant_id":"A1LA6CIGBNDOH9"},{"rt":null,"stimulus":"stimuli/29.jpg","button_pressed":null,"name":"noRating","trial_type":"image-button-response","trial_index":82,"time_elapsed":272270,"internal_node_id":"0.0-82.0","participant_id":"A1LA6CIGBNDOH9"},{"rt":645,"stimulus":"stimuli/29.jpg","button_pressed":"0","name":"valence","trial_type":"image-button-response","trial_index":83,"time_elapsed":272916,"internal_node_id":"0.0-83.0","participant_id":"A1LA6CIGBNDOH9"},{"rt":2969,"response":"51","name":"rating","trial_type":"image-slider-response","trial_index":84,"time_elapsed":275885,"internal_node_id":"0.0-84.0","participant_id":"A1LA6CIGBNDOH9"},{"rt":1155,"stimulus":"stimuli/29.jpg","button_pressed":"0","name":"emotionType","trial_type":"image-button-response","trial_index":85,"time_elapsed":277042,"internal_node_id":"0.0-85.0","participant_id":"A1LA6CIGBNDOH9"},{"rt":3623,"responses":"{\"Q0\":\"our\"}","trial_type":"survey-text","trial_index":86,"time_elapsed":280666,"internal_node_id":"0.0-86.0-0.0","participant_id":"A1LA6CIGBNDOH9"},{"rt":null,"stimulus":"<p style=\"font-size: 48px;\">+</p>","key_press":null,"Name":"fixation","trial_type":"html-keyboard-response","trial_index":87,"time_elapsed":281667,"internal_node_id":"0.0-87.0","participant_id":"A1LA6CIGBNDOH9"},{"rt":null,"stimulus":"stimuli/57.jpg","button_pressed":null,"name":"noRating","trial_type":"image-button-response","trial_index":88,"time_elapsed":286668,"internal_node_id":"0.0-88.0","participant_id":"A1LA6CIGBNDOH9"},{"rt":1358,"stimulus":"stimuli/57.jpg","button_pressed":"0","name":"valence","trial_type":"image-button-response","trial_index":89,"time_elapsed":288026,"internal_node_id":"0.0-89.0","participant_id":"A1LA6CIGBNDOH9"},{"rt":2204,"response":"35","name":"rating","trial_type":"image-slider-response","trial_index":90,"time_elapsed":290230,"internal_node_id":"0.0-90.0","participant_id":"A1LA6CIGBNDOH9"},{"rt":787,"stimulus":"stimuli/57.jpg","button_pressed":"1","name":"emotionType","trial_type":"image-button-response","trial_index":91,"time_elapsed":291018,"internal_node_id":"0.0-91.0","participant_id":"A1LA6CIGBNDOH9"},{"rt":null,"stimulus":"<p style=\"font-size: 48px;\">+</p>","key_press":null,"Name":"fixation","trial_type":"html-keyboard-response","trial_index":92,"time_elapsed":292519,"internal_node_id":"0.0-92.0","participant_id":"A1LA6CIGBNDOH9"},{"rt":null,"stimulus":"stimuli/32.jpg","button_pressed":null,"name":"noRating","trial_type":"image-button-response","trial_index":93,"time_elapsed":297519,"internal_node_id":"0.0-93.0","participant_id":"A1LA6CIGBNDOH9"},{"rt":952,"stimulus":"stimuli/32.jpg","button_pressed":"0","name":"valence","trial_type":"image-button-response","trial_index":94,"time_elapsed":298472,"internal_node_id":"0.0-94.0","participant_id":"A1LA6CIGBNDOH9"},{"rt":2365,"response":"58","name":"rating","trial_type":"image-slider-response","trial_index":95,"time_elapsed":300837,"internal_node_id":"0.0-95.0","participant_id":"A1LA6CIGBNDOH9"},{"rt":2187,"stimulus":"stimuli/32.jpg","button_pressed":"0","name":"emotionType","trial_type":"image-button-response","trial_index":96,"time_elapsed":303026,"internal_node_id":"0.0-96.0","participant_id":"A1LA6CIGBNDOH9"},{"rt":null,"stimulus":"<p style=\"font-size: 48px;\">+</p>","key_press":null,"Name":"fixation","trial_type":"html-keyboard-response","trial_index":97,"time_elapsed":304528,"internal_node_id":"0.0-97.0","participant_id":"A1LA6CIGBNDOH9"},{"rt":null,"stimulus":"stimuli/2.jpg","button_pressed":null,"name":"noRating","trial_type":"image-button-response","trial_index":98,"time_elapsed":309530,"internal_node_id":"0.0-98.0","participant_id":"A1LA6CIGBNDOH9"},{"rt":878,"stimulus":"stimuli/2.jpg","button_pressed":"0","name":"valence","trial_type":"image-button-response","trial_index":99,"time_elapsed":310408,"internal_node_id":"0.0-99.0","participant_id":"A1LA6CIGBNDOH9"},{"rt":3756,"response":"73","name":"rating","trial_type":"image-slider-response","trial_index":100,"time_elapsed":314165,"internal_node_id":"0.0-100.0","participant_id":"A1LA6CIGBNDOH9"},{"rt":4078,"stimulus":"stimuli/2.jpg","button_pressed":"0","name":"emotionType","trial_type":"image-button-response","trial_index":101,"time_elapsed":318245,"internal_node_id":"0.0-101.0","participant_id":"A1LA6CIGBNDOH9"},{"rt":null,"stimulus":"<p style=\"font-size: 48px;\">+</p>","key_press":null,"Name":"fixation","trial_type":"html-keyboard-response","trial_index":102,"time_elapsed":319247,"internal_node_id":"0.0-102.0","participant_id":"A1LA6CIGBNDOH9"},{"rt":null,"stimulus":"stimuli/13.jpg","button_pressed":null,"name":"noRating","trial_type":"image-button-response","trial_index":103,"time_elapsed":324248,"internal_node_id":"0.0-103.0","participant_id":"A1LA6CIGBNDOH9"},{"rt":1045,"stimulus":"stimuli/13.jpg","button_pressed":"0","name":"valence","trial_type":"image-button-response","trial_index":104,"time_elapsed":325293,"internal_node_id":"0.0-104.0","participant_id":"A1LA6CIGBNDOH9"},{"rt":3450,"response":"43","name":"rating","trial_type":"image-slider-response","trial_index":105,"time_elapsed":328744,"internal_node_id":"0.0-105.0","participant_id":"A1LA6CIGBNDOH9"},{"rt":993,"stimulus":"stimuli/13.jpg","button_pressed":"0","name":"emotionType","trial_type":"image-button-response","trial_index":106,"time_elapsed":329738,"internal_node_id":"0.0-106.0","participant_id":"A1LA6CIGBNDOH9"},{"rt":null,"stimulus":"<p style=\"font-size: 48px;\">+</p>","key_press":null,"Name":"fixation","trial_type":"html-keyboard-response","trial_index":107,"time_elapsed":331239,"internal_node_id":"0.0-107.0","participant_id":"A1LA6CIGBNDOH9"},{"rt":null,"stimulus":"stimuli/18.jpg","button_pressed":null,"name":"noRating","trial_type":"image-button-response","trial_index":108,"time_elapsed":336241,"internal_node_id":"0.0-108.0","participant_id":"A1LA6CIGBNDOH9"},{"rt":964,"stimulus":"stimuli/18.jpg","button_pressed":"0","name":"valence","trial_type":"image-button-response","trial_index":109,"time_elapsed":337206,"internal_node_id":"0.0-109.0","participant_id":"A1LA6CIGBNDOH9"},{"rt":2945,"response":"40","name":"rating","trial_type":"image-slider-response","trial_index":110,"time_elapsed":340152,"internal_node_id":"0.0-110.0","participant_id":"A1LA6CIGBNDOH9"},{"rt":1201,"stimulus":"stimuli/18.jpg","button_pressed":"1","name":"emotionType","trial_type":"image-button-response","trial_index":111,"time_elapsed":341354,"internal_node_id":"0.0-111.0","participant_id":"A1LA6CIGBNDOH9"},{"rt":3695,"responses":"{\"Q0\":\"course\"}","trial_type":"survey-text","trial_index":112,"time_elapsed":345050,"internal_node_id":"0.0-112.0-0.0","participant_id":"A1LA6CIGBNDOH9"},{"rt":null,"stimulus":"<p style=\"font-size: 48px;\">+</p>","key_press":null,"Name":"fixation","trial_type":"html-keyboard-response","trial_index":113,"time_elapsed":346550,"internal_node_id":"0.0-113.0","participant_id":"A1LA6CIGBNDOH9"},{"rt":null,"stimulus":"stimuli/52.jpg","button_pressed":null,"name":"noRating","trial_type":"image-button-response","trial_index":114,"time_elapsed":351553,"internal_node_id":"0.0-114.0","participant_id":"A1LA6CIGBNDOH9"},{"rt":1190,"stimulus":"stimuli/52.jpg","button_pressed":"0","name":"valence","trial_type":"image-button-response","trial_index":115,"time_elapsed":352744,"internal_node_id":"0.0-115.0","participant_id":"A1LA6CIGBNDOH9"},{"rt":2866,"response":"71","name":"rating","trial_type":"image-slider-response","trial_index":116,"time_elapsed":355612,"internal_node_id":"0.0-116.0","participant_id":"A1LA6CIGBNDOH9"},{"rt":3117,"stimulus":"stimuli/52.jpg","button_pressed":"1","name":"emotionType","trial_type":"image-button-response","trial_index":117,"time_elapsed":358730,"internal_node_id":"0.0-117.0","participant_id":"A1LA6CIGBNDOH9"},{"rt":null,"stimulus":"<p style=\"font-size: 48px;\">+</p>","key_press":null,"Name":"fixation","trial_type":"html-keyboard-response","trial_index":118,"time_elapsed":359231,"internal_node_id":"0.0-118.0","participant_id":"A1LA6CIGBNDOH9"},{"rt":null,"stimulus":"stimuli/46.jpg","button_pressed":null,"name":"noRating","trial_type":"image-button-response","trial_index":119,"time_elapsed":364233,"internal_node_id":"0.0-119.0","participant_id":"A1LA6CIGBNDOH9"},{"rt":1292,"stimulus":"stimuli/46.jpg","button_pressed":"0","name":"valence","trial_type":"image-button-response","trial_index":120,"time_elapsed":365526,"internal_node_id":"0.0-120.0","participant_id":"A1LA6CIGBNDOH9"},{"rt":3601,"response":"50","name":"rating","trial_type":"image-slider-response","trial_index":121,"time_elapsed":369128,"internal_node_id":"0.0-121.0","participant_id":"A1LA6CIGBNDOH9"},{"rt":1046,"stimulus":"stimuli/46.jpg","button_pressed":"0","name":"emotionType","trial_type":"image-button-response","trial_index":122,"time_elapsed":370174,"internal_node_id":"0.0-122.0","participant_id":"A1LA6CIGBNDOH9"},{"rt":null,"stimulus":"<p style=\"font-size: 48px;\">+</p>","key_press":null,"Name":"fixation","trial_type":"html-keyboard-response","trial_index":123,"time_elapsed":371176,"internal_node_id":"0.0-123.0","participant_id":"A1LA6CIGBNDOH9"},{"rt":null,"stimulus":"stimuli/39.jpg","button_pressed":null,"name":"noRating","trial_type":"image-button-response","trial_index":124,"time_elapsed":376177,"internal_node_id":"0.0-124.0","participant_id":"A1LA6CIGBNDOH9"},{"rt":966,"stimulus":"stimuli/39.jpg","button_pressed":"0","name":"valence","trial_type":"image-button-response","trial_index":125,"time_elapsed":377144,"internal_node_id":"0.0-125.0","participant_id":"A1LA6CIGBNDOH9"},{"rt":3091,"response":"33","name":"rating","trial_type":"image-slider-response","trial_index":126,"time_elapsed":380236,"internal_node_id":"0.0-126.0","participant_id":"A1LA6CIGBNDOH9"},{"rt":767,"stimulus":"stimuli/39.jpg","button_pressed":"0","name":"emotionType","trial_type":"image-button-response","trial_index":127,"time_elapsed":381004,"internal_node_id":"0.0-127.0","participant_id":"A1LA6CIGBNDOH9"},{"rt":null,"stimulus":"<p style=\"font-size: 48px;\">+</p>","key_press":null,"Name":"fixation","trial_type":"html-keyboard-response","trial_index":128,"time_elapsed":382005,"internal_node_id":"0.0-128.0","participant_id":"A1LA6CIGBNDOH9"},{"rt":null,"stimulus":"stimuli/61.jpg","button_pressed":null,"name":"noRating","trial_type":"image-button-response","trial_index":129,"time_elapsed":387005,"internal_node_id":"0.0-129.0","participant_id":"A1LA6CIGBNDOH9"},{"rt":973,"stimulus":"stimuli/61.jpg","button_pressed":"0","name":"valence","trial_type":"image-button-response","trial_index":130,"time_elapsed":387980,"internal_node_id":"0.0-130.0","participant_id":"A1LA6CIGBNDOH9"},{"rt":3139,"response":"28","name":"rating","trial_type":"image-slider-response","trial_index":131,"time_elapsed":391120,"internal_node_id":"0.0-131.0","participant_id":"A1LA6CIGBNDOH9"},{"rt":639,"stimulus":"stimuli/61.jpg","button_pressed":"0","name":"emotionType","trial_type":"image-button-response","trial_index":132,"time_elapsed":391760,"internal_node_id":"0.0-132.0","participant_id":"A1LA6CIGBNDOH9"},{"rt":null,"stimulus":"<p style=\"font-size: 48px;\">+</p>","key_press":null,"Name":"fixation","trial_type":"html-keyboard-response","trial_index":133,"time_elapsed":392762,"internal_node_id":"0.0-133.0","participant_id":"A1LA6CIGBNDOH9"},{"rt":null,"stimulus":"stimuli/47.jpg","button_pressed":null,"name":"noRating","trial_type":"image-button-response","trial_index":134,"time_elapsed":397763,"internal_node_id":"0.0-134.0","participant_id":"A1LA6CIGBNDOH9"},{"rt":918,"stimulus":"stimuli/47.jpg","button_pressed":"0","name":"valence","trial_type":"image-button-response","trial_index":135,"time_elapsed":398682,"internal_node_id":"0.0-135.0","participant_id":"A1LA6CIGBNDOH9"},{"rt":2344,"response":"33","name":"rating","trial_type":"image-slider-response","trial_index":136,"time_elapsed":401026,"internal_node_id":"0.0-136.0","participant_id":"A1LA6CIGBNDOH9"},{"rt":1006,"stimulus":"stimuli/47.jpg","button_pressed":"0","name":"emotionType","trial_type":"image-button-response","trial_index":137,"time_elapsed":402034,"internal_node_id":"0.0-137.0","participant_id":"A1LA6CIGBNDOH9"},{"rt":4282,"responses":"{\"Q0\":\"we\"}","trial_type":"survey-text","trial_index":138,"time_elapsed":406316,"internal_node_id":"0.0-138.0-0.0","participant_id":"A1LA6CIGBNDOH9"},{"rt":null,"stimulus":"<p style=\"font-size: 48px;\">+</p>","key_press":null,"Name":"fixation","trial_type":"html-keyboard-response","trial_index":139,"time_elapsed":407318,"internal_node_id":"0.0-139.0","participant_id":"A1LA6CIGBNDOH9"},{"rt":null,"stimulus":"stimuli/59.jpg","button_pressed":null,"name":"noRating","trial_type":"image-button-response","trial_index":140,"time_elapsed":412319,"internal_node_id":"0.0-140.0","participant_id":"A1LA6CIGBNDOH9"},{"rt":843,"stimulus":"stimuli/59.jpg","button_pressed":"0","name":"valence","trial_type":"image-button-response","trial_index":141,"time_elapsed":413162,"internal_node_id":"0.0-141.0","participant_id":"A1LA6CIGBNDOH9"},{"rt":3707,"response":"17","name":"rating","trial_type":"image-slider-response","trial_index":142,"time_elapsed":416870,"internal_node_id":"0.0-142.0","participant_id":"A1LA6CIGBNDOH9"},{"rt":1031,"stimulus":"stimuli/59.jpg","button_pressed":"0","name":"emotionType","trial_type":"image-button-response","trial_index":143,"time_elapsed":417902,"internal_node_id":"0.0-143.0","participant_id":"A1LA6CIGBNDOH9"},{"rt":null,"stimulus":"<p style=\"font-size: 48px;\">+</p>","key_press":null,"Name":"fixation","trial_type":"html-keyboard-response","trial_index":144,"time_elapsed":418902,"internal_node_id":"0.0-144.0","participant_id":"A1LA6CIGBNDOH9"},{"rt":null,"stimulus":"stimuli/4.jpg","button_pressed":null,"name":"noRating","trial_type":"image-button-response","trial_index":145,"time_elapsed":423904,"internal_node_id":"0.0-145.0","participant_id":"A1LA6CIGBNDOH9"},{"rt":1121,"stimulus":"stimuli/4.jpg","button_pressed":"0","name":"valence","trial_type":"image-button-response","trial_index":146,"time_elapsed":425026,"internal_node_id":"0.0-146.0","participant_id":"A1LA6CIGBNDOH9"},{"rt":3125,"response":"35","name":"rating","trial_type":"image-slider-response","trial_index":147,"time_elapsed":428151,"internal_node_id":"0.0-147.0","participant_id":"A1LA6CIGBNDOH9"},{"rt":1061,"stimulus":"stimuli/4.jpg","button_pressed":"0","name":"emotionType","trial_type":"image-button-response","trial_index":148,"time_elapsed":429214,"internal_node_id":"0.0-148.0","participant_id":"A1LA6CIGBNDOH9"},{"rt":null,"stimulus":"<p style=\"font-size: 48px;\">+</p>","key_press":null,"Name":"fixation","trial_type":"html-keyboard-response","trial_index":149,"time_elapsed":430215,"internal_node_id":"0.0-149.0","participant_id":"A1LA6CIGBNDOH9"},{"rt":null,"stimulus":"stimuli/67.jpg","button_pressed":null,"name":"noRating","trial_type":"image-button-response","trial_index":150,"time_elapsed":435216,"internal_node_id":"0.0-150.0","participant_id":"A1LA6CIGBNDOH9"},{"rt":1709,"stimulus":"stimuli/67.jpg","button_pressed":"0","name":"valence","trial_type":"image-button-response","trial_index":151,"time_elapsed":436926,"internal_node_id":"0.0-151.0","participant_id":"A1LA6CIGBNDOH9"},{"rt":2803,"response":"36","name":"rating","trial_type":"image-slider-response","trial_index":152,"time_elapsed":439730,"internal_node_id":"0.0-152.0","participant_id":"A1LA6CIGBNDOH9"},{"rt":913,"stimulus":"stimuli/67.jpg","button_pressed":"1","name":"emotionType","trial_type":"image-button-response","trial_index":153,"time_elapsed":440644,"internal_node_id":"0.0-153.0","participant_id":"A1LA6CIGBNDOH9"},{"rt":null,"stimulus":"<p style=\"font-size: 48px;\">+</p>","key_press":null,"Name":"fixation","trial_type":"html-keyboard-response","trial_index":154,"time_elapsed":442146,"internal_node_id":"0.0-154.0","participant_id":"A1LA6CIGBNDOH9"},{"rt":null,"stimulus":"stimuli/15.jpg","button_pressed":null,"name":"noRating","trial_type":"image-button-response","trial_index":155,"time_elapsed":447147,"internal_node_id":"0.0-155.0","participant_id":"A1LA6CIGBNDOH9"},{"rt":1136,"stimulus":"stimuli/15.jpg","button_pressed":"0","name":"valence","trial_type":"image-button-response","trial_index":156,"time_elapsed":448284,"internal_node_id":"0.0-156.0","participant_id":"A1LA6CIGBNDOH9"},{"rt":2561,"response":"13","name":"rating","trial_type":"image-slider-response","trial_index":157,"time_elapsed":450846,"internal_node_id":"0.0-157.0","participant_id":"A1LA6CIGBNDOH9"},{"rt":867,"stimulus":"stimuli/15.jpg","button_pressed":"0","name":"emotionType","trial_type":"image-button-response","trial_index":158,"time_elapsed":451713,"internal_node_id":"0.0-158.0","participant_id":"A1LA6CIGBNDOH9"},{"rt":null,"stimulus":"<p style=\"font-size: 48px;\">+</p>","key_press":null,"Name":"fixation","trial_type":"html-keyboard-response","trial_index":159,"time_elapsed":452714,"internal_node_id":"0.0-159.0","participant_id":"A1LA6CIGBNDOH9"},{"rt":null,"stimulus":"stimuli/26.jpg","button_pressed":null,"name":"noRating","trial_type":"image-button-response","trial_index":160,"time_elapsed":457715,"internal_node_id":"0.0-160.0","participant_id":"A1LA6CIGBNDOH9"},{"rt":1277,"stimulus":"stimuli/26.jpg","button_pressed":"0","name":"valence","trial_type":"image-button-response","trial_index":161,"time_elapsed":458994,"internal_node_id":"0.0-161.0","participant_id":"A1LA6CIGBNDOH9"},{"rt":2256,"response":"30","name":"rating","trial_type":"image-slider-response","trial_index":162,"time_elapsed":461252,"internal_node_id":"0.0-162.0","participant_id":"A1LA6CIGBNDOH9"},{"rt":1163,"stimulus":"stimuli/26.jpg","button_pressed":"0","name":"emotionType","trial_type":"image-button-response","trial_index":163,"time_elapsed":462416,"internal_node_id":"0.0-163.0","participant_id":"A1LA6CIGBNDOH9"},{"rt":3515,"stimulus":"stimuli/ins/Slide8.JPG","button_pressed":"0","trial_type":"image-button-response","trial_index":164,"time_elapsed":465932,"internal_node_id":"0.0-164.0","participant_id":"A1LA6CIGBNDOH9"}]