[{"rt":5133,"responses":"{\"Q0\":\"A1MTRZDRKNB9GV\"}","trial_type":"survey-text","trial_index":0,"time_elapsed":5141,"internal_node_id":"0.0-0.0-0.0","participant_id":"A1MTRZDRKNB9GV"},{"rt":10189,"stimulus":"stimuli/ins/Slide1.JPG","button_pressed":"0","Name":"instructions","trial_type":"image-button-response","trial_index":1,"time_elapsed":15340,"internal_node_id":"0.0-1.0","participant_id":"A1MTRZDRKNB9GV"},{"rt":5868,"stimulus":"stimuli/ins/Slide2.JPG","button_pressed":"0","Name":"instructions","trial_type":"image-button-response","trial_index":2,"time_elapsed":21211,"internal_node_id":"0.0-2.0","participant_id":"A1MTRZDRKNB9GV"},{"rt":7350,"stimulus":"stimuli/ins/Slide3.JPG","button_pressed":"0","Name":"instructions","trial_type":"image-button-response","trial_index":3,"time_elapsed":28563,"internal_node_id":"0.0-3.0","participant_id":"A1MTRZDRKNB9GV"},{"rt":8093,"stimulus":"stimuli/ins/Slide4.JPG","button_pressed":"0","Name":"instructions","trial_type":"image-button-response","trial_index":4,"time_elapsed":36659,"internal_node_id":"0.0-4.0","participant_id":"A1MTRZDRKNB9GV"},{"rt":5693,"stimulus":"stimuli/ins/Slide5.JPG","button_pressed":"0","Name":"instructions","trial_type":"image-button-response","trial_index":5,"time_elapsed":42355,"internal_node_id":"0.0-5.0","participant_id":"A1MTRZDRKNB9GV"},{"rt":4589,"stimulus":"stimuli/ins/Slide6.JPG","button_pressed":"0","Name":"instructions","trial_type":"image-button-response","trial_index":6,"time_elapsed":46948,"internal_node_id":"0.0-6.0","participant_id":"A1MTRZDRKNB9GV"},{"rt":3148,"stimulus":"stimuli/ins/Slide7.JPG","button_pressed":"0","Name":"instructions","trial_type":"image-button-response","trial_index":7,"time_elapsed":50099,"internal_node_id":"0.0-7.0","participant_id":"A1MTRZDRKNB9GV"},{"rt":12948,"responses":"{\"Q0\":\"but\"}","trial_type":"survey-text","trial_index":8,"time_elapsed":63051,"internal_node_id":"0.0-8.0-0.0","participant_id":"A1MTRZDRKNB9GV"},{"rt":null,"stimulus":"<p style=\"font-size: 48px;\">+</p>","key_press":null,"Name":"fixation","trial_type":"html-keyboard-response","trial_index":9,"time_elapsed":64056,"internal_node_id":"0.0-9.0","participant_id":"A1MTRZDRKNB9GV"},{"rt":null,"stimulus":"stimuli/63.jpg","button_pressed":null,"name":"noRating","trial_type":"image-button-response","trial_index":10,"time_elapsed":69060,"internal_node_id":"0.0-10.0","participant_id":"A1MTRZDRKNB9GV"},{"rt":1605,"stimulus":"stimuli/63.jpg","button_pressed":"0","name":"valence","trial_type":"image-button-response","trial_index":11,"time_elapsed":70668,"internal_node_id":"0.0-11.0","participant_id":"A1MTRZDRKNB9GV"},{"rt":3371,"response":"100","name":"rating","trial_type":"image-slider-response","trial_index":12,"time_elapsed":74044,"internal_node_id":"0.0-12.0","participant_id":"A1MTRZDRKNB9GV"},{"rt":4258,"stimulus":"stimuli/63.jpg","button_pressed":"0","name":"emotionType","trial_type":"image-button-response","trial_index":13,"time_elapsed":78309,"internal_node_id":"0.0-13.0","participant_id":"A1MTRZDRKNB9GV"},{"rt":null,"stimulus":"<p style=\"font-size: 48px;\">+</p>","key_press":null,"Name":"fixation","trial_type":"html-keyboard-response","trial_index":14,"time_elapsed":78813,"internal_node_id":"0.0-14.0","participant_id":"A1MTRZDRKNB9GV"},{"rt":null,"stimulus":"stimuli/69.jpg","button_pressed":null,"name":"noRating","trial_type":"image-button-response","trial_index":15,"time_elapsed":83817,"internal_node_id":"0.0-15.0","participant_id":"A1MTRZDRKNB9GV"},{"rt":1743,"stimulus":"stimuli/69.jpg","button_pressed":"0","name":"valence","trial_type":"image-button-response","trial_index":16,"time_elapsed":85569,"internal_node_id":"0.0-16.0","participant_id":"A1MTRZDRKNB9GV"},{"rt":3439,"response":"100","name":"rating","trial_type":"image-slider-response","trial_index":17,"time_elapsed":89011,"internal_node_id":"0.0-17.0","participant_id":"A1MTRZDRKNB9GV"},{"rt":1357,"stimulus":"stimuli/69.jpg","button_pressed":"0","name":"emotionType","trial_type":"image-button-response","trial_index":18,"time_elapsed":90371,"internal_node_id":"0.0-18.0","participant_id":"A1MTRZDRKNB9GV"},{"rt":null,"stimulus":"<p style=\"font-size: 48px;\">+</p>","key_press":null,"Name":"fixation","trial_type":"html-keyboard-response","trial_index":19,"time_elapsed":91873,"internal_node_id":"0.0-19.0","participant_id":"A1MTRZDRKNB9GV"},{"rt":null,"stimulus":"stimuli/70.jpg","button_pressed":null,"name":"noRating","trial_type":"image-button-response","trial_index":20,"time_elapsed":96875,"internal_node_id":"0.0-20.0","participant_id":"A1MTRZDRKNB9GV"},{"rt":1341,"stimulus":"stimuli/70.jpg","button_pressed":"0","name":"valence","trial_type":"image-button-response","trial_index":21,"time_elapsed":98219,"internal_node_id":"0.0-21.0","participant_id":"A1MTRZDRKNB9GV"},{"rt":3190,"response":"100","name":"rating","trial_type":"image-slider-response","trial_index":22,"time_elapsed":101412,"internal_node_id":"0.0-22.0","participant_id":"A1MTRZDRKNB9GV"},{"rt":1690,"stimulus":"stimuli/70.jpg","button_pressed":"0","name":"emotionType","trial_type":"image-button-response","trial_index":23,"time_elapsed":103107,"internal_node_id":"0.0-23.0","participant_id":"A1MTRZDRKNB9GV"},{"rt":null,"stimulus":"<p style=\"font-size: 48px;\">+</p>","key_press":null,"Name":"fixation","trial_type":"html-keyboard-response","trial_index":24,"time_elapsed":104109,"internal_node_id":"0.0-24.0","participant_id":"A1MTRZDRKNB9GV"},{"rt":null,"stimulus":"stimuli/15.jpg","button_pressed":null,"name":"noRating","trial_type":"image-button-response","trial_index":25,"time_elapsed":109115,"internal_node_id":"0.0-25.0","participant_id":"A1MTRZDRKNB9GV"},{"rt":1574,"stimulus":"stimuli/15.jpg","button_pressed":"0","name":"valence","trial_type":"image-button-response","trial_index":26,"time_elapsed":110691,"internal_node_id":"0.0-26.0","participant_id":"A1MTRZDRKNB9GV"},{"rt":2829,"response":"100","name":"rating","trial_type":"image-slider-response","trial_index":27,"time_elapsed":113523,"internal_node_id":"0.0-27.0","participant_id":"A1MTRZDRKNB9GV"},{"rt":1429,"stimulus":"stimuli/15.jpg","button_pressed":"0","name":"emotionType","trial_type":"image-button-response","trial_index":28,"time_elapsed":114955,"internal_node_id":"0.0-28.0","participant_id":"A1MTRZDRKNB9GV"},{"rt":null,"stimulus":"<p style=\"font-size: 48px;\">+</p>","key_press":null,"Name":"fixation","trial_type":"html-keyboard-response","trial_index":29,"time_elapsed":115959,"internal_node_id":"0.0-29.0","participant_id":"A1MTRZDRKNB9GV"},{"rt":null,"stimulus":"stimuli/33.jpg","button_pressed":null,"name":"noRating","trial_type":"image-button-response","trial_index":30,"time_elapsed":120961,"internal_node_id":"0.0-30.0","participant_id":"A1MTRZDRKNB9GV"},{"rt":1783,"stimulus":"stimuli/33.jpg","button_pressed":"0","name":"valence","trial_type":"image-button-response","trial_index":31,"time_elapsed":122749,"internal_node_id":"0.0-31.0","participant_id":"A1MTRZDRKNB9GV"},{"rt":2634,"response":"83","name":"rating","trial_type":"image-slider-response","trial_index":32,"time_elapsed":125387,"internal_node_id":"0.0-32.0","participant_id":"A1MTRZDRKNB9GV"},{"rt":1333,"stimulus":"stimuli/33.jpg","button_pressed":"0","name":"emotionType","trial_type":"image-button-response","trial_index":33,"time_elapsed":126724,"internal_node_id":"0.0-33.0","participant_id":"A1MTRZDRKNB9GV"},{"rt":5109,"responses":"{\"Q0\":\"rock\"}","trial_type":"survey-text","trial_index":34,"time_elapsed":131835,"internal_node_id":"0.0-34.0-0.0","participant_id":"A1MTRZDRKNB9GV"},{"rt":null,"stimulus":"<p style=\"font-size: 48px;\">+</p>","key_press":null,"Name":"fixation","trial_type":"html-keyboard-response","trial_index":35,"time_elapsed":132338,"internal_node_id":"0.0-35.0","participant_id":"A1MTRZDRKNB9GV"},{"rt":null,"stimulus":"stimuli/50.jpg","button_pressed":null,"name":"noRating","trial_type":"image-button-response","trial_index":36,"time_elapsed":137343,"internal_node_id":"0.0-36.0","participant_id":"A1MTRZDRKNB9GV"},{"rt":1306,"stimulus":"stimuli/50.jpg","button_pressed":"0","name":"valence","trial_type":"image-button-response","trial_index":37,"time_elapsed":138652,"internal_node_id":"0.0-37.0","participant_id":"A1MTRZDRKNB9GV"},{"rt":2706,"response":"100","name":"rating","trial_type":"image-slider-response","trial_index":38,"time_elapsed":141363,"internal_node_id":"0.0-38.0","participant_id":"A1MTRZDRKNB9GV"},{"rt":1339,"stimulus":"stimuli/50.jpg","button_pressed":"0","name":"emotionType","trial_type":"image-button-response","trial_index":39,"time_elapsed":142708,"internal_node_id":"0.0-39.0","participant_id":"A1MTRZDRKNB9GV"},{"rt":null,"stimulus":"<p style=\"font-size: 48px;\">+</p>","key_press":null,"Name":"fixation","trial_type":"html-keyboard-response","trial_index":40,"time_elapsed":143211,"internal_node_id":"0.0-40.0","participant_id":"A1MTRZDRKNB9GV"},{"rt":null,"stimulus":"stimuli/68.jpg","button_pressed":null,"name":"noRating","trial_type":"image-button-response","trial_index":41,"time_elapsed":148213,"internal_node_id":"0.0-41.0","participant_id":"A1MTRZDRKNB9GV"},{"rt":1115,"stimulus":"stimuli/68.jpg","button_pressed":"0","name":"valence","trial_type":"image-button-response","trial_index":42,"time_elapsed":149332,"internal_node_id":"0.0-42.0","participant_id":"A1MTRZDRKNB9GV"},{"rt":2926,"response":"100","name":"rating","trial_type":"image-slider-response","trial_index":43,"time_elapsed":152264,"internal_node_id":"0.0-43.0","participant_id":"A1MTRZDRKNB9GV"},{"rt":1279,"stimulus":"stimuli/68.jpg","button_pressed":"0","name":"emotionType","trial_type":"image-button-response","trial_index":44,"time_elapsed":153549,"internal_node_id":"0.0-44.0","participant_id":"A1MTRZDRKNB9GV"},{"rt":null,"stimulus":"<p style=\"font-size: 48px;\">+</p>","key_press":null,"Name":"fixation","trial_type":"html-keyboard-response","trial_index":45,"time_elapsed":155052,"internal_node_id":"0.0-45.0","participant_id":"A1MTRZDRKNB9GV"},{"rt":null,"stimulus":"stimuli/20.jpg","button_pressed":null,"name":"noRating","trial_type":"image-button-response","trial_index":46,"time_elapsed":160054,"internal_node_id":"0.0-46.0","participant_id":"A1MTRZDRKNB9GV"},{"rt":1115,"stimulus":"stimuli/20.jpg","button_pressed":"0","name":"valence","trial_type":"image-button-response","trial_index":47,"time_elapsed":161173,"internal_node_id":"0.0-47.0","participant_id":"A1MTRZDRKNB9GV"},{"rt":2458,"response":"100","name":"rating","trial_type":"image-slider-response","trial_index":48,"time_elapsed":163635,"internal_node_id":"0.0-48.0","participant_id":"A1MTRZDRKNB9GV"},{"rt":1094,"stimulus":"stimuli/20.jpg","button_pressed":"0","name":"emotionType","trial_type":"image-button-response","trial_index":49,"time_elapsed":164732,"internal_node_id":"0.0-49.0","participant_id":"A1MTRZDRKNB9GV"},{"rt":null,"stimulus":"<p style=\"font-size: 48px;\">+</p>","key_press":null,"Name":"fixation","trial_type":"html-keyboard-response","trial_index":50,"time_elapsed":165735,"internal_node_id":"0.0-50.0","participant_id":"A1MTRZDRKNB9GV"},{"rt":null,"stimulus":"stimuli/39.jpg","button_pressed":null,"name":"noRating","trial_type":"image-button-response","trial_index":51,"time_elapsed":170737,"internal_node_id":"0.0-51.0","participant_id":"A1MTRZDRKNB9GV"},{"rt":1032,"stimulus":"stimuli/39.jpg","button_pressed":"0","name":"valence","trial_type":"image-button-response","trial_index":52,"time_elapsed":171771,"internal_node_id":"0.0-52.0","participant_id":"A1MTRZDRKNB9GV"},{"rt":2805,"response":"100","name":"rating","trial_type":"image-slider-response","trial_index":53,"time_elapsed":174579,"internal_node_id":"0.0-53.0","participant_id":"A1MTRZDRKNB9GV"},{"rt":1012,"stimulus":"stimuli/39.jpg","button_pressed":"0","name":"emotionType","trial_type":"image-button-response","trial_index":54,"time_elapsed":175595,"internal_node_id":"0.0-54.0","participant_id":"A1MTRZDRKNB9GV"},{"rt":null,"stimulus":"<p style=\"font-size: 48px;\">+</p>","key_press":null,"Name":"fixation","trial_type":"html-keyboard-response","trial_index":55,"time_elapsed":176599,"internal_node_id":"0.0-55.0","participant_id":"A1MTRZDRKNB9GV"},{"rt":null,"stimulus":"stimuli/13.jpg","button_pressed":null,"name":"noRating","trial_type":"image-button-response","trial_index":56,"time_elapsed":181602,"internal_node_id":"0.0-56.0","participant_id":"A1MTRZDRKNB9GV"},{"rt":1894,"stimulus":"stimuli/13.jpg","button_pressed":"0","name":"valence","trial_type":"image-button-response","trial_index":57,"time_elapsed":183499,"internal_node_id":"0.0-57.0","participant_id":"A1MTRZDRKNB9GV"},{"rt":3316,"response":"100","name":"rating","trial_type":"image-slider-response","trial_index":58,"time_elapsed":186820,"internal_node_id":"0.0-58.0","participant_id":"A1MTRZDRKNB9GV"},{"rt":1620,"stimulus":"stimuli/13.jpg","button_pressed":"0","name":"emotionType","trial_type":"image-button-response","trial_index":59,"time_elapsed":188443,"internal_node_id":"0.0-59.0","participant_id":"A1MTRZDRKNB9GV"},{"rt":4781,"responses":"{\"Q0\":\"sky\"}","trial_type":"survey-text","trial_index":60,"time_elapsed":193227,"internal_node_id":"0.0-60.0-0.0","participant_id":"A1MTRZDRKNB9GV"},{"rt":null,"stimulus":"<p style=\"font-size: 48px;\">+</p>","key_press":null,"Name":"fixation","trial_type":"html-keyboard-response","trial_index":61,"time_elapsed":194731,"internal_node_id":"0.0-61.0","participant_id":"A1MTRZDRKNB9GV"},{"rt":null,"stimulus":"stimuli/66.jpg","button_pressed":null,"name":"noRating","trial_type":"image-button-response","trial_index":62,"time_elapsed":199733,"internal_node_id":"0.0-62.0","participant_id":"A1MTRZDRKNB9GV"},{"rt":1478,"stimulus":"stimuli/66.jpg","button_pressed":"0","name":"valence","trial_type":"image-button-response","trial_index":63,"time_elapsed":201215,"internal_node_id":"0.0-63.0","participant_id":"A1MTRZDRKNB9GV"},{"rt":3064,"response":"100","name":"rating","trial_type":"image-slider-response","trial_index":64,"time_elapsed":204283,"internal_node_id":"0.0-64.0","participant_id":"A1MTRZDRKNB9GV"},{"rt":1309,"stimulus":"stimuli/66.jpg","button_pressed":"0","name":"emotionType","trial_type":"image-button-response","trial_index":65,"time_elapsed":205595,"internal_node_id":"0.0-65.0","participant_id":"A1MTRZDRKNB9GV"},{"rt":null,"stimulus":"<p style=\"font-size: 48px;\">+</p>","key_press":null,"Name":"fixation","trial_type":"html-keyboard-response","trial_index":66,"time_elapsed":206600,"internal_node_id":"0.0-66.0","participant_id":"A1MTRZDRKNB9GV"},{"rt":null,"stimulus":"stimuli/17.jpg","button_pressed":null,"name":"noRating","trial_type":"image-button-response","trial_index":67,"time_elapsed":211603,"internal_node_id":"0.0-67.0","participant_id":"A1MTRZDRKNB9GV"},{"rt":1353,"stimulus":"stimuli/17.jpg","button_pressed":"0","name":"valence","trial_type":"image-button-response","trial_index":68,"time_elapsed":212963,"internal_node_id":"0.0-68.0","participant_id":"A1MTRZDRKNB9GV"},{"rt":2219,"response":"100","name":"rating","trial_type":"image-slider-response","trial_index":69,"time_elapsed":215187,"internal_node_id":"0.0-69.0","participant_id":"A1MTRZDRKNB9GV"},{"rt":1237,"stimulus":"stimuli/17.jpg","button_pressed":"0","name":"emotionType","trial_type":"image-button-response","trial_index":70,"time_elapsed":216427,"internal_node_id":"0.0-70.0","participant_id":"A1MTRZDRKNB9GV"},{"rt":null,"stimulus":"<p style=\"font-size: 48px;\">+</p>","key_press":null,"Name":"fixation","trial_type":"html-keyboard-response","trial_index":71,"time_elapsed":217430,"internal_node_id":"0.0-71.0","participant_id":"A1MTRZDRKNB9GV"},{"rt":null,"stimulus":"stimuli/42.jpg","button_pressed":null,"name":"noRating","trial_type":"image-button-response","trial_index":72,"time_elapsed":222433,"internal_node_id":"0.0-72.0","participant_id":"A1MTRZDRKNB9GV"},{"rt":1223,"stimulus":"stimuli/42.jpg","button_pressed":"0","name":"valence","trial_type":"image-button-response","trial_index":73,"time_elapsed":223659,"internal_node_id":"0.0-73.0","participant_id":"A1MTRZDRKNB9GV"},{"rt":2317,"response":"89","name":"rating","trial_type":"image-slider-response","trial_index":74,"time_elapsed":225979,"internal_node_id":"0.0-74.0","participant_id":"A1MTRZDRKNB9GV"},{"rt":939,"stimulus":"stimuli/42.jpg","button_pressed":"1","name":"emotionType","trial_type":"image-button-response","trial_index":75,"time_elapsed":226923,"internal_node_id":"0.0-75.0","participant_id":"A1MTRZDRKNB9GV"},{"rt":null,"stimulus":"<p style=\"font-size: 48px;\">+</p>","key_press":null,"Name":"fixation","trial_type":"html-keyboard-response","trial_index":76,"time_elapsed":227938,"internal_node_id":"0.0-76.0","participant_id":"A1MTRZDRKNB9GV"},{"rt":null,"stimulus":"stimuli/56.jpg","button_pressed":null,"name":"noRating","trial_type":"image-button-response","trial_index":77,"time_elapsed":232941,"internal_node_id":"0.0-77.0","participant_id":"A1MTRZDRKNB9GV"},{"rt":1228,"stimulus":"stimuli/56.jpg","button_pressed":"0","name":"valence","trial_type":"image-button-response","trial_index":78,"time_elapsed":234171,"internal_node_id":"0.0-78.0","participant_id":"A1MTRZDRKNB9GV"},{"rt":3765,"response":"100","name":"rating","trial_type":"image-slider-response","trial_index":79,"time_elapsed":237939,"internal_node_id":"0.0-79.0","participant_id":"A1MTRZDRKNB9GV"},{"rt":933,"stimulus":"stimuli/56.jpg","button_pressed":"0","name":"emotionType","trial_type":"image-button-response","trial_index":80,"time_elapsed":238875,"internal_node_id":"0.0-80.0","participant_id":"A1MTRZDRKNB9GV"},{"rt":null,"stimulus":"<p style=\"font-size: 48px;\">+</p>","key_press":null,"Name":"fixation","trial_type":"html-keyboard-response","trial_index":81,"time_elapsed":239879,"internal_node_id":"0.0-81.0","participant_id":"A1MTRZDRKNB9GV"},{"rt":null,"stimulus":"stimuli/46.jpg","button_pressed":null,"name":"noRating","trial_type":"image-button-response","trial_index":82,"time_elapsed":244884,"internal_node_id":"0.0-82.0","participant_id":"A1MTRZDRKNB9GV"},{"rt":1333,"stimulus":"stimuli/46.jpg","button_pressed":"0","name":"valence","trial_type":"image-button-response","trial_index":83,"time_elapsed":246219,"internal_node_id":"0.0-83.0","participant_id":"A1MTRZDRKNB9GV"},{"rt":2716,"response":"100","name":"rating","trial_type":"image-slider-response","trial_index":84,"time_elapsed":248939,"internal_node_id":"0.0-84.0","participant_id":"A1MTRZDRKNB9GV"},{"rt":1109,"stimulus":"stimuli/46.jpg","button_pressed":"0","name":"emotionType","trial_type":"image-button-response","trial_index":85,"time_elapsed":250051,"internal_node_id":"0.0-85.0","participant_id":"A1MTRZDRKNB9GV"},{"rt":4381,"responses":"{\"Q0\":\"our\"}","trial_type":"survey-text","trial_index":86,"time_elapsed":254435,"internal_node_id":"0.0-86.0-0.0","participant_id":"A1MTRZDRKNB9GV"},{"rt":null,"stimulus":"<p style=\"font-size: 48px;\">+</p>","key_press":null,"Name":"fixation","trial_type":"html-keyboard-response","trial_index":87,"time_elapsed":255438,"internal_node_id":"0.0-87.0","participant_id":"A1MTRZDRKNB9GV"},{"rt":null,"stimulus":"stimuli/55.jpg","button_pressed":null,"name":"noRating","trial_type":"image-button-response","trial_index":88,"time_elapsed":260440,"internal_node_id":"0.0-88.0","participant_id":"A1MTRZDRKNB9GV"},{"rt":1000,"stimulus":"stimuli/55.jpg","button_pressed":"0","name":"valence","trial_type":"image-button-response","trial_index":89,"time_elapsed":261443,"internal_node_id":"0.0-89.0","participant_id":"A1MTRZDRKNB9GV"},{"rt":2940,"response":"100","name":"rating","trial_type":"image-slider-response","trial_index":90,"time_elapsed":264387,"internal_node_id":"0.0-90.0","participant_id":"A1MTRZDRKNB9GV"},{"rt":1533,"stimulus":"stimuli/55.jpg","button_pressed":"0","name":"emotionType","trial_type":"image-button-response","trial_index":91,"time_elapsed":265923,"internal_node_id":"0.0-91.0","participant_id":"A1MTRZDRKNB9GV"},{"rt":null,"stimulus":"<p style=\"font-size: 48px;\">+</p>","key_press":null,"Name":"fixation","trial_type":"html-keyboard-response","trial_index":92,"time_elapsed":266427,"internal_node_id":"0.0-92.0","participant_id":"A1MTRZDRKNB9GV"},{"rt":null,"stimulus":"stimuli/43.jpg","button_pressed":null,"name":"noRating","trial_type":"image-button-response","trial_index":93,"time_elapsed":271429,"internal_node_id":"0.0-93.0","participant_id":"A1MTRZDRKNB9GV"},{"rt":1411,"stimulus":"stimuli/43.jpg","button_pressed":"0","name":"valence","trial_type":"image-button-response","trial_index":94,"time_elapsed":272843,"internal_node_id":"0.0-94.0","participant_id":"A1MTRZDRKNB9GV"},{"rt":2556,"response":"100","name":"rating","trial_type":"image-slider-response","trial_index":95,"time_elapsed":275403,"internal_node_id":"0.0-95.0","participant_id":"A1MTRZDRKNB9GV"},{"rt":1148,"stimulus":"stimuli/43.jpg","button_pressed":"0","name":"emotionType","trial_type":"image-button-response","trial_index":96,"time_elapsed":276555,"internal_node_id":"0.0-96.0","participant_id":"A1MTRZDRKNB9GV"},{"rt":null,"stimulus":"<p style=\"font-size: 48px;\">+</p>","key_press":null,"Name":"fixation","trial_type":"html-keyboard-response","trial_index":97,"time_elapsed":277057,"internal_node_id":"0.0-97.0","participant_id":"A1MTRZDRKNB9GV"},{"rt":null,"stimulus":"stimuli/2.jpg","button_pressed":null,"name":"noRating","trial_type":"image-button-response","trial_index":98,"time_elapsed":282060,"internal_node_id":"0.0-98.0","participant_id":"A1MTRZDRKNB9GV"},{"rt":1485,"stimulus":"stimuli/2.jpg","button_pressed":"0","name":"valence","trial_type":"image-button-response","trial_index":99,"time_elapsed":283548,"internal_node_id":"0.0-99.0","participant_id":"A1MTRZDRKNB9GV"},{"rt":2326,"response":"100","name":"rating","trial_type":"image-slider-response","trial_index":100,"time_elapsed":285878,"internal_node_id":"0.0-100.0","participant_id":"A1MTRZDRKNB9GV"},{"rt":1039,"stimulus":"stimuli/2.jpg","button_pressed":"0","name":"emotionType","trial_type":"image-button-response","trial_index":101,"time_elapsed":286923,"internal_node_id":"0.0-101.0","participant_id":"A1MTRZDRKNB9GV"},{"rt":null,"stimulus":"<p style=\"font-size: 48px;\">+</p>","key_press":null,"Name":"fixation","trial_type":"html-keyboard-response","trial_index":102,"time_elapsed":288427,"internal_node_id":"0.0-102.0","participant_id":"A1MTRZDRKNB9GV"},{"rt":null,"stimulus":"stimuli/62.jpg","button_pressed":null,"name":"noRating","trial_type":"image-button-response","trial_index":103,"time_elapsed":293430,"internal_node_id":"0.0-103.0","participant_id":"A1MTRZDRKNB9GV"},{"rt":1682,"stimulus":"stimuli/62.jpg","button_pressed":"0","name":"valence","trial_type":"image-button-response","trial_index":104,"time_elapsed":295115,"internal_node_id":"0.0-104.0","participant_id":"A1MTRZDRKNB9GV"},{"rt":2645,"response":"100","name":"rating","trial_type":"image-slider-response","trial_index":105,"time_elapsed":297765,"internal_node_id":"0.0-105.0","participant_id":"A1MTRZDRKNB9GV"},{"rt":947,"stimulus":"stimuli/62.jpg","button_pressed":"0","name":"emotionType","trial_type":"image-button-response","trial_index":106,"time_elapsed":298716,"internal_node_id":"0.0-106.0","participant_id":"A1MTRZDRKNB9GV"},{"rt":null,"stimulus":"<p style=\"font-size: 48px;\">+</p>","key_press":null,"Name":"fixation","trial_type":"html-keyboard-response","trial_index":107,"time_elapsed":299718,"internal_node_id":"0.0-107.0","participant_id":"A1MTRZDRKNB9GV"},{"rt":null,"stimulus":"stimuli/57.jpg","button_pressed":null,"name":"noRating","trial_type":"image-button-response","trial_index":108,"time_elapsed":304720,"internal_node_id":"0.0-108.0","participant_id":"A1MTRZDRKNB9GV"},{"rt":1064,"stimulus":"stimuli/57.jpg","button_pressed":"0","name":"valence","trial_type":"image-button-response","trial_index":109,"time_elapsed":305787,"internal_node_id":"0.0-109.0","participant_id":"A1MTRZDRKNB9GV"},{"rt":2501,"response":"100","name":"rating","trial_type":"image-slider-response","trial_index":110,"time_elapsed":308291,"internal_node_id":"0.0-110.0","participant_id":"A1MTRZDRKNB9GV"},{"rt":997,"stimulus":"stimuli/57.jpg","button_pressed":"0","name":"emotionType","trial_type":"image-button-response","trial_index":111,"time_elapsed":309291,"internal_node_id":"0.0-111.0","participant_id":"A1MTRZDRKNB9GV"},{"rt":5590,"responses":"{\"Q0\":\"course\"}","trial_type":"survey-text","trial_index":112,"time_elapsed":314883,"internal_node_id":"0.0-112.0-0.0","participant_id":"A1MTRZDRKNB9GV"},{"rt":null,"stimulus":"<p style=\"font-size: 48px;\">+</p>","key_press":null,"Name":"fixation","trial_type":"html-keyboard-response","trial_index":113,"time_elapsed":315386,"internal_node_id":"0.0-113.0","participant_id":"A1MTRZDRKNB9GV"},{"rt":null,"stimulus":"stimuli/32.jpg","button_pressed":null,"name":"noRating","trial_type":"image-button-response","trial_index":114,"time_elapsed":320389,"internal_node_id":"0.0-114.0","participant_id":"A1MTRZDRKNB9GV"},{"rt":1228,"stimulus":"stimuli/32.jpg","button_pressed":"0","name":"valence","trial_type":"image-button-response","trial_index":115,"time_elapsed":321619,"internal_node_id":"0.0-115.0","participant_id":"A1MTRZDRKNB9GV"},{"rt":2604,"response":"100","name":"rating","trial_type":"image-slider-response","trial_index":116,"time_elapsed":324227,"internal_node_id":"0.0-116.0","participant_id":"A1MTRZDRKNB9GV"},{"rt":1141,"stimulus":"stimuli/32.jpg","button_pressed":"0","name":"emotionType","trial_type":"image-button-response","trial_index":117,"time_elapsed":325371,"internal_node_id":"0.0-117.0","participant_id":"A1MTRZDRKNB9GV"},{"rt":null,"stimulus":"<p style=\"font-size: 48px;\">+</p>","key_press":null,"Name":"fixation","trial_type":"html-keyboard-response","trial_index":118,"time_elapsed":326874,"internal_node_id":"0.0-118.0","participant_id":"A1MTRZDRKNB9GV"},{"rt":null,"stimulus":"stimuli/3.jpg","button_pressed":null,"name":"noRating","trial_type":"image-button-response","trial_index":119,"time_elapsed":331877,"internal_node_id":"0.0-119.0","participant_id":"A1MTRZDRKNB9GV"},{"rt":1219,"stimulus":"stimuli/3.jpg","button_pressed":"0","name":"valence","trial_type":"image-button-response","trial_index":120,"time_elapsed":333099,"internal_node_id":"0.0-120.0","participant_id":"A1MTRZDRKNB9GV"},{"rt":2805,"response":"100","name":"rating","trial_type":"image-slider-response","trial_index":121,"time_elapsed":335907,"internal_node_id":"0.0-121.0","participant_id":"A1MTRZDRKNB9GV"},{"rt":1101,"stimulus":"stimuli/3.jpg","button_pressed":"0","name":"emotionType","trial_type":"image-button-response","trial_index":122,"time_elapsed":337011,"internal_node_id":"0.0-122.0","participant_id":"A1MTRZDRKNB9GV"},{"rt":null,"stimulus":"<p style=\"font-size: 48px;\">+</p>","key_press":null,"Name":"fixation","trial_type":"html-keyboard-response","trial_index":123,"time_elapsed":338514,"internal_node_id":"0.0-123.0","participant_id":"A1MTRZDRKNB9GV"},{"rt":null,"stimulus":"stimuli/14.jpg","button_pressed":null,"name":"noRating","trial_type":"image-button-response","trial_index":124,"time_elapsed":343519,"internal_node_id":"0.0-124.0","participant_id":"A1MTRZDRKNB9GV"},{"rt":938,"stimulus":"stimuli/14.jpg","button_pressed":"0","name":"valence","trial_type":"image-button-response","trial_index":125,"time_elapsed":344459,"internal_node_id":"0.0-125.0","participant_id":"A1MTRZDRKNB9GV"},{"rt":2572,"response":"100","name":"rating","trial_type":"image-slider-response","trial_index":126,"time_elapsed":347034,"internal_node_id":"0.0-126.0","participant_id":"A1MTRZDRKNB9GV"},{"rt":924,"stimulus":"stimuli/14.jpg","button_pressed":"0","name":"emotionType","trial_type":"image-button-response","trial_index":127,"time_elapsed":347963,"internal_node_id":"0.0-127.0","participant_id":"A1MTRZDRKNB9GV"},{"rt":null,"stimulus":"<p style=\"font-size: 48px;\">+</p>","key_press":null,"Name":"fixation","trial_type":"html-keyboard-response","trial_index":128,"time_elapsed":349466,"internal_node_id":"0.0-128.0","participant_id":"A1MTRZDRKNB9GV"},{"rt":null,"stimulus":"stimuli/40.jpg","button_pressed":null,"name":"noRating","trial_type":"image-button-response","trial_index":129,"time_elapsed":355402,"internal_node_id":"0.0-129.0","participant_id":"A1MTRZDRKNB9GV"},{"rt":1727,"stimulus":"stimuli/40.jpg","button_pressed":"0","name":"valence","trial_type":"image-button-response","trial_index":130,"time_elapsed":357155,"internal_node_id":"0.0-130.0","participant_id":"A1MTRZDRKNB9GV"},{"rt":2965,"response":"100","name":"rating","trial_type":"image-slider-response","trial_index":131,"time_elapsed":360122,"internal_node_id":"0.0-131.0","participant_id":"A1MTRZDRKNB9GV"},{"rt":949,"stimulus":"stimuli/40.jpg","button_pressed":"0","name":"emotionType","trial_type":"image-button-response","trial_index":132,"time_elapsed":361075,"internal_node_id":"0.0-132.0","participant_id":"A1MTRZDRKNB9GV"},{"rt":null,"stimulus":"<p style=\"font-size: 48px;\">+</p>","key_press":null,"Name":"fixation","trial_type":"html-keyboard-response","trial_index":133,"time_elapsed":362577,"internal_node_id":"0.0-133.0","participant_id":"A1MTRZDRKNB9GV"},{"rt":null,"stimulus":"stimuli/60.jpg","button_pressed":null,"name":"noRating","trial_type":"image-button-response","trial_index":134,"time_elapsed":367580,"internal_node_id":"0.0-134.0","participant_id":"A1MTRZDRKNB9GV"},{"rt":1211,"stimulus":"stimuli/60.jpg","button_pressed":"0","name":"valence","trial_type":"image-button-response","trial_index":135,"time_elapsed":368795,"internal_node_id":"0.0-135.0","participant_id":"A1MTRZDRKNB9GV"},{"rt":2596,"response":"95","name":"rating","trial_type":"image-slider-response","trial_index":136,"time_elapsed":371395,"internal_node_id":"0.0-136.0","participant_id":"A1MTRZDRKNB9GV"},{"rt":1028,"stimulus":"stimuli/60.jpg","button_pressed":"1","name":"emotionType","trial_type":"image-button-response","trial_index":137,"time_elapsed":372427,"internal_node_id":"0.0-137.0","participant_id":"A1MTRZDRKNB9GV"},{"rt":3893,"responses":"{\"Q0\":\"we\"}","trial_type":"survey-text","trial_index":138,"time_elapsed":376323,"internal_node_id":"0.0-138.0-0.0","participant_id":"A1MTRZDRKNB9GV"},{"rt":null,"stimulus":"<p style=\"font-size: 48px;\">+</p>","key_press":null,"Name":"fixation","trial_type":"html-keyboard-response","trial_index":139,"time_elapsed":377825,"internal_node_id":"0.0-139.0","participant_id":"A1MTRZDRKNB9GV"},{"rt":null,"stimulus":"stimuli/52.jpg","button_pressed":null,"name":"noRating","trial_type":"image-button-response","trial_index":140,"time_elapsed":382827,"internal_node_id":"0.0-140.0","participant_id":"A1MTRZDRKNB9GV"},{"rt":1413,"stimulus":"stimuli/52.jpg","button_pressed":"0","name":"valence","trial_type":"image-button-response","trial_index":141,"time_elapsed":384243,"internal_node_id":"0.0-141.0","participant_id":"A1MTRZDRKNB9GV"},{"rt":2385,"response":"99","name":"rating","trial_type":"image-slider-response","trial_index":142,"time_elapsed":386635,"internal_node_id":"0.0-142.0","participant_id":"A1MTRZDRKNB9GV"},{"rt":1285,"stimulus":"stimuli/52.jpg","button_pressed":"0","name":"emotionType","trial_type":"image-button-response","trial_index":143,"time_elapsed":387923,"internal_node_id":"0.0-143.0","participant_id":"A1MTRZDRKNB9GV"},{"rt":null,"stimulus":"<p style=\"font-size: 48px;\">+</p>","key_press":null,"Name":"fixation","trial_type":"html-keyboard-response","trial_index":144,"time_elapsed":389426,"internal_node_id":"0.0-144.0","participant_id":"A1MTRZDRKNB9GV"},{"rt":null,"stimulus":"stimuli/71.jpg","button_pressed":null,"name":"noRating","trial_type":"image-button-response","trial_index":145,"time_elapsed":394429,"internal_node_id":"0.0-145.0","participant_id":"A1MTRZDRKNB9GV"},{"rt":1432,"stimulus":"stimuli/71.jpg","button_pressed":"0","name":"valence","trial_type":"image-button-response","trial_index":146,"time_elapsed":395867,"internal_node_id":"0.0-146.0","participant_id":"A1MTRZDRKNB9GV"},{"rt":2948,"response":"100","name":"rating","trial_type":"image-slider-response","trial_index":147,"time_elapsed":398819,"internal_node_id":"0.0-147.0","participant_id":"A1MTRZDRKNB9GV"},{"rt":1061,"stimulus":"stimuli/71.jpg","button_pressed":"0","name":"emotionType","trial_type":"image-button-response","trial_index":148,"time_elapsed":399884,"internal_node_id":"0.0-148.0","participant_id":"A1MTRZDRKNB9GV"},{"rt":null,"stimulus":"<p style=\"font-size: 48px;\">+</p>","key_press":null,"Name":"fixation","trial_type":"html-keyboard-response","trial_index":149,"time_elapsed":400386,"internal_node_id":"0.0-149.0","participant_id":"A1MTRZDRKNB9GV"},{"rt":null,"stimulus":"stimuli/27.jpg","button_pressed":null,"name":"noRating","trial_type":"image-button-response","trial_index":150,"time_elapsed":405388,"internal_node_id":"0.0-150.0","participant_id":"A1MTRZDRKNB9GV"},{"rt":1540,"stimulus":"stimuli/27.jpg","button_pressed":"0","name":"valence","trial_type":"image-button-response","trial_index":151,"time_elapsed":406932,"internal_node_id":"0.0-151.0","participant_id":"A1MTRZDRKNB9GV"},{"rt":2468,"response":"100","name":"rating","trial_type":"image-slider-response","trial_index":152,"time_elapsed":409404,"internal_node_id":"0.0-152.0","participant_id":"A1MTRZDRKNB9GV"},{"rt":1052,"stimulus":"stimuli/27.jpg","button_pressed":"0","name":"emotionType","trial_type":"image-button-response","trial_index":153,"time_elapsed":410459,"internal_node_id":"0.0-153.0","participant_id":"A1MTRZDRKNB9GV"},{"rt":null,"stimulus":"<p style=\"font-size: 48px;\">+</p>","key_press":null,"Name":"fixation","trial_type":"html-keyboard-response","trial_index":154,"time_elapsed":411962,"internal_node_id":"0.0-154.0","participant_id":"A1MTRZDRKNB9GV"},{"rt":null,"stimulus":"stimuli/31.jpg","button_pressed":null,"name":"noRating","trial_type":"image-button-response","trial_index":155,"time_elapsed":416965,"internal_node_id":"0.0-155.0","participant_id":"A1MTRZDRKNB9GV"},{"rt":1060,"stimulus":"stimuli/31.jpg","button_pressed":"0","name":"valence","trial_type":"image-button-response","trial_index":156,"time_elapsed":418027,"internal_node_id":"0.0-156.0","participant_id":"A1MTRZDRKNB9GV"},{"rt":2644,"response":"99","name":"rating","trial_type":"image-slider-response","trial_index":157,"time_elapsed":420675,"internal_node_id":"0.0-157.0","participant_id":"A1MTRZDRKNB9GV"},{"rt":1061,"stimulus":"stimuli/31.jpg","button_pressed":"0","name":"emotionType","trial_type":"image-button-response","trial_index":158,"time_elapsed":421739,"internal_node_id":"0.0-158.0","participant_id":"A1MTRZDRKNB9GV"},{"rt":null,"stimulus":"<p style=\"font-size: 48px;\">+</p>","key_press":null,"Name":"fixation","trial_type":"html-keyboard-response","trial_index":159,"time_elapsed":423242,"internal_node_id":"0.0-159.0","participant_id":"A1MTRZDRKNB9GV"},{"rt":null,"stimulus":"stimuli/54.jpg","button_pressed":null,"name":"noRating","trial_type":"image-button-response","trial_index":160,"time_elapsed":428244,"internal_node_id":"0.0-160.0","participant_id":"A1MTRZDRKNB9GV"},{"rt":1378,"stimulus":"stimuli/54.jpg","button_pressed":"0","name":"valence","trial_type":"image-button-response","trial_index":161,"time_elapsed":429627,"internal_node_id":"0.0-161.0","participant_id":"A1MTRZDRKNB9GV"},{"rt":2789,"response":"100","name":"rating","trial_type":"image-slider-response","trial_index":162,"time_elapsed":432419,"internal_node_id":"0.0-162.0","participant_id":"A1MTRZDRKNB9GV"},{"rt":876,"stimulus":"stimuli/54.jpg","button_pressed":"0","name":"emotionType","trial_type":"image-button-response","trial_index":163,"time_elapsed":433299,"internal_node_id":"0.0-163.0","participant_id":"A1MTRZDRKNB9GV"},{"rt":7765,"stimulus":"stimuli/ins/Slide8.JPG","button_pressed":"0","trial_type":"image-button-response","trial_index":164,"time_elapsed":441067,"internal_node_id":"0.0-164.0","participant_id":"A1MTRZDRKNB9GV"}]