[{"rt":7720,"responses":"{\"Q0\":\"A1QEQOI98976S0\"}","trial_type":"survey-text","trial_index":0,"time_elapsed":7722,"internal_node_id":"0.0-0.0-0.0","participant_id":"A1QEQOI98976S0"},{"rt":2493,"stimulus":"stimuli/ins/Slide1.JPG","button_pressed":"0","Name":"instructions","trial_type":"image-button-response","trial_index":1,"time_elapsed":10217,"internal_node_id":"0.0-1.0","participant_id":"A1QEQOI98976S0"},{"rt":3381,"stimulus":"stimuli/ins/Slide2.JPG","button_pressed":"0","Name":"instructions","trial_type":"image-button-response","trial_index":2,"time_elapsed":13599,"internal_node_id":"0.0-2.0","participant_id":"A1QEQOI98976S0"},{"rt":7073,"stimulus":"stimuli/ins/Slide3.JPG","button_pressed":"0","Name":"instructions","trial_type":"image-button-response","trial_index":3,"time_elapsed":20674,"internal_node_id":"0.0-3.0","participant_id":"A1QEQOI98976S0"},{"rt":3412,"stimulus":"stimuli/ins/Slide4.JPG","button_pressed":"0","Name":"instructions","trial_type":"image-button-response","trial_index":4,"time_elapsed":24086,"internal_node_id":"0.0-4.0","participant_id":"A1QEQOI98976S0"},{"rt":3771,"stimulus":"stimuli/ins/Slide5.JPG","button_pressed":"0","Name":"instructions","trial_type":"image-button-response","trial_index":5,"time_elapsed":27858,"internal_node_id":"0.0-5.0","participant_id":"A1QEQOI98976S0"},{"rt":4527,"stimulus":"stimuli/ins/Slide6.JPG","button_pressed":"0","Name":"instructions","trial_type":"image-button-response","trial_index":6,"time_elapsed":32387,"internal_node_id":"0.0-6.0","participant_id":"A1QEQOI98976S0"},{"rt":2584,"stimulus":"stimuli/ins/Slide7.JPG","button_pressed":"0","Name":"instructions","trial_type":"image-button-response","trial_index":7,"time_elapsed":34971,"internal_node_id":"0.0-7.0","participant_id":"A1QEQOI98976S0"},{"rt":18051,"responses":"{\"Q0\":\"but\"}","trial_type":"survey-text","trial_index":8,"time_elapsed":53024,"internal_node_id":"0.0-8.0-0.0","participant_id":"A1QEQOI98976S0"},{"rt":null,"stimulus":"<p style=\"font-size: 48px;\">+</p>","key_press":null,"Name":"fixation","trial_type":"html-keyboard-response","trial_index":9,"time_elapsed":53527,"internal_node_id":"0.0-9.0","participant_id":"A1QEQOI98976S0"},{"rt":null,"stimulus":"stimuli/50.jpg","button_pressed":null,"name":"noRating","trial_type":"image-button-response","trial_index":10,"time_elapsed":58530,"internal_node_id":"0.0-10.0","participant_id":"A1QEQOI98976S0"},{"rt":1236,"stimulus":"stimuli/50.jpg","button_pressed":"0","name":"valence","trial_type":"image-button-response","trial_index":11,"time_elapsed":59766,"internal_node_id":"0.0-11.0","participant_id":"A1QEQOI98976S0"},{"rt":3003,"response":"56","name":"rating","trial_type":"image-slider-response","trial_index":12,"time_elapsed":62772,"internal_node_id":"0.0-12.0","participant_id":"A1QEQOI98976S0"},{"rt":3371,"stimulus":"stimuli/50.jpg","button_pressed":"1","name":"emotionType","trial_type":"image-button-response","trial_index":13,"time_elapsed":66145,"internal_node_id":"0.0-13.0","participant_id":"A1QEQOI98976S0"},{"rt":null,"stimulus":"<p style=\"font-size: 48px;\">+</p>","key_press":null,"Name":"fixation","trial_type":"html-keyboard-response","trial_index":14,"time_elapsed":67148,"internal_node_id":"0.0-14.0","participant_id":"A1QEQOI98976S0"},{"rt":null,"stimulus":"stimuli/51.jpg","button_pressed":null,"name":"noRating","trial_type":"image-button-response","trial_index":15,"time_elapsed":72149,"internal_node_id":"0.0-15.0","participant_id":"A1QEQOI98976S0"},{"rt":1660,"stimulus":"stimuli/51.jpg","button_pressed":"0","name":"valence","trial_type":"image-button-response","trial_index":16,"time_elapsed":73811,"internal_node_id":"0.0-16.0","participant_id":"A1QEQOI98976S0"},{"rt":2874,"response":"55","name":"rating","trial_type":"image-slider-response","trial_index":17,"time_elapsed":76687,"internal_node_id":"0.0-17.0","participant_id":"A1QEQOI98976S0"},{"rt":1706,"stimulus":"stimuli/51.jpg","button_pressed":"0","name":"emotionType","trial_type":"image-button-response","trial_index":18,"time_elapsed":78395,"internal_node_id":"0.0-18.0","participant_id":"A1QEQOI98976S0"},{"rt":null,"stimulus":"<p style=\"font-size: 48px;\">+</p>","key_press":null,"Name":"fixation","trial_type":"html-keyboard-response","trial_index":19,"time_elapsed":79397,"internal_node_id":"0.0-19.0","participant_id":"A1QEQOI98976S0"},{"rt":null,"stimulus":"stimuli/21.jpg","button_pressed":null,"name":"noRating","trial_type":"image-button-response","trial_index":20,"time_elapsed":84398,"internal_node_id":"0.0-20.0","participant_id":"A1QEQOI98976S0"},{"rt":1165,"stimulus":"stimuli/21.jpg","button_pressed":"0","name":"valence","trial_type":"image-button-response","trial_index":21,"time_elapsed":85563,"internal_node_id":"0.0-21.0","participant_id":"A1QEQOI98976S0"},{"rt":2489,"response":"82","name":"rating","trial_type":"image-slider-response","trial_index":22,"time_elapsed":88054,"internal_node_id":"0.0-22.0","participant_id":"A1QEQOI98976S0"},{"rt":1597,"stimulus":"stimuli/21.jpg","button_pressed":"1","name":"emotionType","trial_type":"image-button-response","trial_index":23,"time_elapsed":89653,"internal_node_id":"0.0-23.0","participant_id":"A1QEQOI98976S0"},{"rt":null,"stimulus":"<p style=\"font-size: 48px;\">+</p>","key_press":null,"Name":"fixation","trial_type":"html-keyboard-response","trial_index":24,"time_elapsed":91154,"internal_node_id":"0.0-24.0","participant_id":"A1QEQOI98976S0"},{"rt":null,"stimulus":"stimuli/61.jpg","button_pressed":null,"name":"noRating","trial_type":"image-button-response","trial_index":25,"time_elapsed":96156,"internal_node_id":"0.0-25.0","participant_id":"A1QEQOI98976S0"},{"rt":9895,"stimulus":"stimuli/61.jpg","button_pressed":"0","name":"valence","trial_type":"image-button-response","trial_index":26,"time_elapsed":106052,"internal_node_id":"0.0-26.0","participant_id":"A1QEQOI98976S0"},{"rt":2099,"response":"36","name":"rating","trial_type":"image-slider-response","trial_index":27,"time_elapsed":108153,"internal_node_id":"0.0-27.0","participant_id":"A1QEQOI98976S0"},{"rt":1559,"stimulus":"stimuli/61.jpg","button_pressed":"0","name":"emotionType","trial_type":"image-button-response","trial_index":28,"time_elapsed":109714,"internal_node_id":"0.0-28.0","participant_id":"A1QEQOI98976S0"},{"rt":null,"stimulus":"<p style=\"font-size: 48px;\">+</p>","key_press":null,"Name":"fixation","trial_type":"html-keyboard-response","trial_index":29,"time_elapsed":111215,"internal_node_id":"0.0-29.0","participant_id":"A1QEQOI98976S0"},{"rt":null,"stimulus":"stimuli/12.jpg","button_pressed":null,"name":"noRating","trial_type":"image-button-response","trial_index":30,"time_elapsed":116216,"internal_node_id":"0.0-30.0","participant_id":"A1QEQOI98976S0"},{"rt":1926,"stimulus":"stimuli/12.jpg","button_pressed":"0","name":"valence","trial_type":"image-button-response","trial_index":31,"time_elapsed":118143,"internal_node_id":"0.0-31.0","participant_id":"A1QEQOI98976S0"},{"rt":3747,"response":"36","name":"rating","trial_type":"image-slider-response","trial_index":32,"time_elapsed":121892,"internal_node_id":"0.0-32.0","participant_id":"A1QEQOI98976S0"},{"rt":1439,"stimulus":"stimuli/12.jpg","button_pressed":"0","name":"emotionType","trial_type":"image-button-response","trial_index":33,"time_elapsed":123333,"internal_node_id":"0.0-33.0","participant_id":"A1QEQOI98976S0"},{"rt":6396,"responses":"{\"Q0\":\"rock\"}","trial_type":"survey-text","trial_index":34,"time_elapsed":129731,"internal_node_id":"0.0-34.0-0.0","participant_id":"A1QEQOI98976S0"},{"rt":null,"stimulus":"<p style=\"font-size: 48px;\">+</p>","key_press":null,"Name":"fixation","trial_type":"html-keyboard-response","trial_index":35,"time_elapsed":130232,"internal_node_id":"0.0-35.0","participant_id":"A1QEQOI98976S0"},{"rt":null,"stimulus":"stimuli/30.jpg","button_pressed":null,"name":"noRating","trial_type":"image-button-response","trial_index":36,"time_elapsed":135233,"internal_node_id":"0.0-36.0","participant_id":"A1QEQOI98976S0"},{"rt":1033,"stimulus":"stimuli/30.jpg","button_pressed":"0","name":"valence","trial_type":"image-button-response","trial_index":37,"time_elapsed":136267,"internal_node_id":"0.0-37.0","participant_id":"A1QEQOI98976S0"},{"rt":2354,"response":"44","name":"rating","trial_type":"image-slider-response","trial_index":38,"time_elapsed":138623,"internal_node_id":"0.0-38.0","participant_id":"A1QEQOI98976S0"},{"rt":1822,"stimulus":"stimuli/30.jpg","button_pressed":"0","name":"emotionType","trial_type":"image-button-response","trial_index":39,"time_elapsed":140446,"internal_node_id":"0.0-39.0","participant_id":"A1QEQOI98976S0"},{"rt":null,"stimulus":"<p style=\"font-size: 48px;\">+</p>","key_press":null,"Name":"fixation","trial_type":"html-keyboard-response","trial_index":40,"time_elapsed":140947,"internal_node_id":"0.0-40.0","participant_id":"A1QEQOI98976S0"},{"rt":null,"stimulus":"stimuli/29.jpg","button_pressed":null,"name":"noRating","trial_type":"image-button-response","trial_index":41,"time_elapsed":145948,"internal_node_id":"0.0-41.0","participant_id":"A1QEQOI98976S0"},{"rt":1524,"stimulus":"stimuli/29.jpg","button_pressed":"0","name":"valence","trial_type":"image-button-response","trial_index":42,"time_elapsed":147473,"internal_node_id":"0.0-42.0","participant_id":"A1QEQOI98976S0"},{"rt":2603,"response":"40","name":"rating","trial_type":"image-slider-response","trial_index":43,"time_elapsed":150077,"internal_node_id":"0.0-43.0","participant_id":"A1QEQOI98976S0"},{"rt":1496,"stimulus":"stimuli/29.jpg","button_pressed":"0","name":"emotionType","trial_type":"image-button-response","trial_index":44,"time_elapsed":151573,"internal_node_id":"0.0-44.0","participant_id":"A1QEQOI98976S0"},{"rt":null,"stimulus":"<p style=\"font-size: 48px;\">+</p>","key_press":null,"Name":"fixation","trial_type":"html-keyboard-response","trial_index":45,"time_elapsed":152074,"internal_node_id":"0.0-45.0","participant_id":"A1QEQOI98976S0"},{"rt":null,"stimulus":"stimuli/8.jpg","button_pressed":null,"name":"noRating","trial_type":"image-button-response","trial_index":46,"time_elapsed":157077,"internal_node_id":"0.0-46.0","participant_id":"A1QEQOI98976S0"},{"rt":2054,"stimulus":"stimuli/8.jpg","button_pressed":"0","name":"valence","trial_type":"image-button-response","trial_index":47,"time_elapsed":159132,"internal_node_id":"0.0-47.0","participant_id":"A1QEQOI98976S0"},{"rt":3194,"response":"64","name":"rating","trial_type":"image-slider-response","trial_index":48,"time_elapsed":162326,"internal_node_id":"0.0-48.0","participant_id":"A1QEQOI98976S0"},{"rt":2470,"stimulus":"stimuli/8.jpg","button_pressed":"0","name":"emotionType","trial_type":"image-button-response","trial_index":49,"time_elapsed":164798,"internal_node_id":"0.0-49.0","participant_id":"A1QEQOI98976S0"},{"rt":null,"stimulus":"<p style=\"font-size: 48px;\">+</p>","key_press":null,"Name":"fixation","trial_type":"html-keyboard-response","trial_index":50,"time_elapsed":165300,"internal_node_id":"0.0-50.0","participant_id":"A1QEQOI98976S0"},{"rt":null,"stimulus":"stimuli/48.jpg","button_pressed":null,"name":"noRating","trial_type":"image-button-response","trial_index":51,"time_elapsed":170303,"internal_node_id":"0.0-51.0","participant_id":"A1QEQOI98976S0"},{"rt":1308,"stimulus":"stimuli/48.jpg","button_pressed":"0","name":"valence","trial_type":"image-button-response","trial_index":52,"time_elapsed":171611,"internal_node_id":"0.0-52.0","participant_id":"A1QEQOI98976S0"},{"rt":2355,"response":"57","name":"rating","trial_type":"image-slider-response","trial_index":53,"time_elapsed":173967,"internal_node_id":"0.0-53.0","participant_id":"A1QEQOI98976S0"},{"rt":1375,"stimulus":"stimuli/48.jpg","button_pressed":"0","name":"emotionType","trial_type":"image-button-response","trial_index":54,"time_elapsed":175344,"internal_node_id":"0.0-54.0","participant_id":"A1QEQOI98976S0"},{"rt":null,"stimulus":"<p style=\"font-size: 48px;\">+</p>","key_press":null,"Name":"fixation","trial_type":"html-keyboard-response","trial_index":55,"time_elapsed":176845,"internal_node_id":"0.0-55.0","participant_id":"A1QEQOI98976S0"},{"rt":null,"stimulus":"stimuli/41.jpg","button_pressed":null,"name":"noRating","trial_type":"image-button-response","trial_index":56,"time_elapsed":181846,"internal_node_id":"0.0-56.0","participant_id":"A1QEQOI98976S0"},{"rt":31172,"stimulus":"stimuli/41.jpg","button_pressed":"0","name":"valence","trial_type":"image-button-response","trial_index":57,"time_elapsed":213019,"internal_node_id":"0.0-57.0","participant_id":"A1QEQOI98976S0"},{"rt":2264,"response":"80","name":"rating","trial_type":"image-slider-response","trial_index":58,"time_elapsed":215283,"internal_node_id":"0.0-58.0","participant_id":"A1QEQOI98976S0"},{"rt":1809,"stimulus":"stimuli/41.jpg","button_pressed":"0","name":"emotionType","trial_type":"image-button-response","trial_index":59,"time_elapsed":217093,"internal_node_id":"0.0-59.0","participant_id":"A1QEQOI98976S0"},{"rt":4804,"responses":"{\"Q0\":\"sky\"}","trial_type":"survey-text","trial_index":60,"time_elapsed":221898,"internal_node_id":"0.0-60.0-0.0","participant_id":"A1QEQOI98976S0"},{"rt":null,"stimulus":"<p style=\"font-size: 48px;\">+</p>","key_press":null,"Name":"fixation","trial_type":"html-keyboard-response","trial_index":61,"time_elapsed":222900,"internal_node_id":"0.0-61.0","participant_id":"A1QEQOI98976S0"},{"rt":null,"stimulus":"stimuli/53.jpg","button_pressed":null,"name":"noRating","trial_type":"image-button-response","trial_index":62,"time_elapsed":228438,"internal_node_id":"0.0-62.0","participant_id":"A1QEQOI98976S0"},{"rt":16088,"stimulus":"stimuli/53.jpg","button_pressed":"0","name":"valence","trial_type":"image-button-response","trial_index":63,"time_elapsed":244527,"internal_node_id":"0.0-63.0","participant_id":"A1QEQOI98976S0"},{"rt":1722,"response":"60","name":"rating","trial_type":"image-slider-response","trial_index":64,"time_elapsed":246252,"internal_node_id":"0.0-64.0","participant_id":"A1QEQOI98976S0"},{"rt":1448,"stimulus":"stimuli/53.jpg","button_pressed":"1","name":"emotionType","trial_type":"image-button-response","trial_index":65,"time_elapsed":247701,"internal_node_id":"0.0-65.0","participant_id":"A1QEQOI98976S0"},{"rt":null,"stimulus":"<p style=\"font-size: 48px;\">+</p>","key_press":null,"Name":"fixation","trial_type":"html-keyboard-response","trial_index":66,"time_elapsed":249203,"internal_node_id":"0.0-66.0","participant_id":"A1QEQOI98976S0"},{"rt":null,"stimulus":"stimuli/16.jpg","button_pressed":null,"name":"noRating","trial_type":"image-button-response","trial_index":67,"time_elapsed":254205,"internal_node_id":"0.0-67.0","participant_id":"A1QEQOI98976S0"},{"rt":9878,"stimulus":"stimuli/16.jpg","button_pressed":"0","name":"valence","trial_type":"image-button-response","trial_index":68,"time_elapsed":264085,"internal_node_id":"0.0-68.0","participant_id":"A1QEQOI98976S0"},{"rt":1849,"response":"57","name":"rating","trial_type":"image-slider-response","trial_index":69,"time_elapsed":265936,"internal_node_id":"0.0-69.0","participant_id":"A1QEQOI98976S0"},{"rt":1016,"stimulus":"stimuli/16.jpg","button_pressed":"1","name":"emotionType","trial_type":"image-button-response","trial_index":70,"time_elapsed":266952,"internal_node_id":"0.0-70.0","participant_id":"A1QEQOI98976S0"},{"rt":null,"stimulus":"<p style=\"font-size: 48px;\">+</p>","key_press":null,"Name":"fixation","trial_type":"html-keyboard-response","trial_index":71,"time_elapsed":267454,"internal_node_id":"0.0-71.0","participant_id":"A1QEQOI98976S0"},{"rt":null,"stimulus":"stimuli/35.jpg","button_pressed":null,"name":"noRating","trial_type":"image-button-response","trial_index":72,"time_elapsed":272457,"internal_node_id":"0.0-72.0","participant_id":"A1QEQOI98976S0"},{"rt":1149,"stimulus":"stimuli/35.jpg","button_pressed":"0","name":"valence","trial_type":"image-button-response","trial_index":73,"time_elapsed":273607,"internal_node_id":"0.0-73.0","participant_id":"A1QEQOI98976S0"},{"rt":1888,"response":"67","name":"rating","trial_type":"image-slider-response","trial_index":74,"time_elapsed":275497,"internal_node_id":"0.0-74.0","participant_id":"A1QEQOI98976S0"},{"rt":1342,"stimulus":"stimuli/35.jpg","button_pressed":"1","name":"emotionType","trial_type":"image-button-response","trial_index":75,"time_elapsed":276840,"internal_node_id":"0.0-75.0","participant_id":"A1QEQOI98976S0"},{"rt":null,"stimulus":"<p style=\"font-size: 48px;\">+</p>","key_press":null,"Name":"fixation","trial_type":"html-keyboard-response","trial_index":76,"time_elapsed":278343,"internal_node_id":"0.0-76.0","participant_id":"A1QEQOI98976S0"},{"rt":null,"stimulus":"stimuli/18.jpg","button_pressed":null,"name":"noRating","trial_type":"image-button-response","trial_index":77,"time_elapsed":283344,"internal_node_id":"0.0-77.0","participant_id":"A1QEQOI98976S0"},{"rt":1659,"stimulus":"stimuli/18.jpg","button_pressed":"0","name":"valence","trial_type":"image-button-response","trial_index":78,"time_elapsed":285004,"internal_node_id":"0.0-78.0","participant_id":"A1QEQOI98976S0"},{"rt":2107,"response":"66","name":"rating","trial_type":"image-slider-response","trial_index":79,"time_elapsed":287111,"internal_node_id":"0.0-79.0","participant_id":"A1QEQOI98976S0"},{"rt":1545,"stimulus":"stimuli/18.jpg","button_pressed":"0","name":"emotionType","trial_type":"image-button-response","trial_index":80,"time_elapsed":288657,"internal_node_id":"0.0-80.0","participant_id":"A1QEQOI98976S0"},{"rt":null,"stimulus":"<p style=\"font-size: 48px;\">+</p>","key_press":null,"Name":"fixation","trial_type":"html-keyboard-response","trial_index":81,"time_elapsed":289158,"internal_node_id":"0.0-81.0","participant_id":"A1QEQOI98976S0"},{"rt":null,"stimulus":"stimuli/62.jpg","button_pressed":null,"name":"noRating","trial_type":"image-button-response","trial_index":82,"time_elapsed":294161,"internal_node_id":"0.0-82.0","participant_id":"A1QEQOI98976S0"},{"rt":1402,"stimulus":"stimuli/62.jpg","button_pressed":"0","name":"valence","trial_type":"image-button-response","trial_index":83,"time_elapsed":295563,"internal_node_id":"0.0-83.0","participant_id":"A1QEQOI98976S0"},{"rt":2160,"response":"92","name":"rating","trial_type":"image-slider-response","trial_index":84,"time_elapsed":297724,"internal_node_id":"0.0-84.0","participant_id":"A1QEQOI98976S0"},{"rt":1642,"stimulus":"stimuli/62.jpg","button_pressed":"1","name":"emotionType","trial_type":"image-button-response","trial_index":85,"time_elapsed":299368,"internal_node_id":"0.0-85.0","participant_id":"A1QEQOI98976S0"},{"rt":3819,"responses":"{\"Q0\":\"our\"}","trial_type":"survey-text","trial_index":86,"time_elapsed":303188,"internal_node_id":"0.0-86.0-0.0","participant_id":"A1QEQOI98976S0"},{"rt":null,"stimulus":"<p style=\"font-size: 48px;\">+</p>","key_press":null,"Name":"fixation","trial_type":"html-keyboard-response","trial_index":87,"time_elapsed":303690,"internal_node_id":"0.0-87.0","participant_id":"A1QEQOI98976S0"},{"rt":null,"stimulus":"stimuli/24.jpg","button_pressed":null,"name":"noRating","trial_type":"image-button-response","trial_index":88,"time_elapsed":308692,"internal_node_id":"0.0-88.0","participant_id":"A1QEQOI98976S0"},{"rt":1124,"stimulus":"stimuli/24.jpg","button_pressed":"0","name":"valence","trial_type":"image-button-response","trial_index":89,"time_elapsed":309816,"internal_node_id":"0.0-89.0","participant_id":"A1QEQOI98976S0"},{"rt":1990,"response":"88","name":"rating","trial_type":"image-slider-response","trial_index":90,"time_elapsed":311807,"internal_node_id":"0.0-90.0","participant_id":"A1QEQOI98976S0"},{"rt":1277,"stimulus":"stimuli/24.jpg","button_pressed":"1","name":"emotionType","trial_type":"image-button-response","trial_index":91,"time_elapsed":313086,"internal_node_id":"0.0-91.0","participant_id":"A1QEQOI98976S0"},{"rt":null,"stimulus":"<p style=\"font-size: 48px;\">+</p>","key_press":null,"Name":"fixation","trial_type":"html-keyboard-response","trial_index":92,"time_elapsed":314588,"internal_node_id":"0.0-92.0","participant_id":"A1QEQOI98976S0"},{"rt":null,"stimulus":"stimuli/15.jpg","button_pressed":null,"name":"noRating","trial_type":"image-button-response","trial_index":93,"time_elapsed":319589,"internal_node_id":"0.0-93.0","participant_id":"A1QEQOI98976S0"},{"rt":1297,"stimulus":"stimuli/15.jpg","button_pressed":"0","name":"valence","trial_type":"image-button-response","trial_index":94,"time_elapsed":320888,"internal_node_id":"0.0-94.0","participant_id":"A1QEQOI98976S0"},{"rt":2095,"response":"75","name":"rating","trial_type":"image-slider-response","trial_index":95,"time_elapsed":322984,"internal_node_id":"0.0-95.0","participant_id":"A1QEQOI98976S0"},{"rt":1762,"stimulus":"stimuli/15.jpg","button_pressed":"0","name":"emotionType","trial_type":"image-button-response","trial_index":96,"time_elapsed":324747,"internal_node_id":"0.0-96.0","participant_id":"A1QEQOI98976S0"},{"rt":null,"stimulus":"<p style=\"font-size: 48px;\">+</p>","key_press":null,"Name":"fixation","trial_type":"html-keyboard-response","trial_index":97,"time_elapsed":325249,"internal_node_id":"0.0-97.0","participant_id":"A1QEQOI98976S0"},{"rt":null,"stimulus":"stimuli/54.jpg","button_pressed":null,"name":"noRating","trial_type":"image-button-response","trial_index":98,"time_elapsed":330250,"internal_node_id":"0.0-98.0","participant_id":"A1QEQOI98976S0"},{"rt":1207,"stimulus":"stimuli/54.jpg","button_pressed":"0","name":"valence","trial_type":"image-button-response","trial_index":99,"time_elapsed":331458,"internal_node_id":"0.0-99.0","participant_id":"A1QEQOI98976S0"},{"rt":2000,"response":"59","name":"rating","trial_type":"image-slider-response","trial_index":100,"time_elapsed":333460,"internal_node_id":"0.0-100.0","participant_id":"A1QEQOI98976S0"},{"rt":1065,"stimulus":"stimuli/54.jpg","button_pressed":"1","name":"emotionType","trial_type":"image-button-response","trial_index":101,"time_elapsed":334527,"internal_node_id":"0.0-101.0","participant_id":"A1QEQOI98976S0"},{"rt":null,"stimulus":"<p style=\"font-size: 48px;\">+</p>","key_press":null,"Name":"fixation","trial_type":"html-keyboard-response","trial_index":102,"time_elapsed":335028,"internal_node_id":"0.0-102.0","participant_id":"A1QEQOI98976S0"},{"rt":null,"stimulus":"stimuli/13.jpg","button_pressed":null,"name":"noRating","trial_type":"image-button-response","trial_index":103,"time_elapsed":340030,"internal_node_id":"0.0-103.0","participant_id":"A1QEQOI98976S0"},{"rt":1752,"stimulus":"stimuli/13.jpg","button_pressed":"0","name":"valence","trial_type":"image-button-response","trial_index":104,"time_elapsed":341784,"internal_node_id":"0.0-104.0","participant_id":"A1QEQOI98976S0"},{"rt":2284,"response":"56","name":"rating","trial_type":"image-slider-response","trial_index":105,"time_elapsed":344069,"internal_node_id":"0.0-105.0","participant_id":"A1QEQOI98976S0"},{"rt":1043,"stimulus":"stimuli/13.jpg","button_pressed":"1","name":"emotionType","trial_type":"image-button-response","trial_index":106,"time_elapsed":345114,"internal_node_id":"0.0-106.0","participant_id":"A1QEQOI98976S0"},{"rt":null,"stimulus":"<p style=\"font-size: 48px;\">+</p>","key_press":null,"Name":"fixation","trial_type":"html-keyboard-response","trial_index":107,"time_elapsed":346616,"internal_node_id":"0.0-107.0","participant_id":"A1QEQOI98976S0"},{"rt":null,"stimulus":"stimuli/31.jpg","button_pressed":null,"name":"noRating","trial_type":"image-button-response","trial_index":108,"time_elapsed":351618,"internal_node_id":"0.0-108.0","participant_id":"A1QEQOI98976S0"},{"rt":3292,"stimulus":"stimuli/31.jpg","button_pressed":"0","name":"valence","trial_type":"image-button-response","trial_index":109,"time_elapsed":354911,"internal_node_id":"0.0-109.0","participant_id":"A1QEQOI98976S0"},{"rt":2444,"response":"63","name":"rating","trial_type":"image-slider-response","trial_index":110,"time_elapsed":357357,"internal_node_id":"0.0-110.0","participant_id":"A1QEQOI98976S0"},{"rt":1650,"stimulus":"stimuli/31.jpg","button_pressed":"1","name":"emotionType","trial_type":"image-button-response","trial_index":111,"time_elapsed":359007,"internal_node_id":"0.0-111.0","participant_id":"A1QEQOI98976S0"},{"rt":6473,"responses":"{\"Q0\":\"course\"}","trial_type":"survey-text","trial_index":112,"time_elapsed":365482,"internal_node_id":"0.0-112.0-0.0","participant_id":"A1QEQOI98976S0"},{"rt":null,"stimulus":"<p style=\"font-size: 48px;\">+</p>","key_press":null,"Name":"fixation","trial_type":"html-keyboard-response","trial_index":113,"time_elapsed":366984,"internal_node_id":"0.0-113.0","participant_id":"A1QEQOI98976S0"},{"rt":null,"stimulus":"stimuli/67.jpg","button_pressed":null,"name":"noRating","trial_type":"image-button-response","trial_index":114,"time_elapsed":371985,"internal_node_id":"0.0-114.0","participant_id":"A1QEQOI98976S0"},{"rt":1519,"stimulus":"stimuli/67.jpg","button_pressed":"0","name":"valence","trial_type":"image-button-response","trial_index":115,"time_elapsed":373506,"internal_node_id":"0.0-115.0","participant_id":"A1QEQOI98976S0"},{"rt":2462,"response":"78","name":"rating","trial_type":"image-slider-response","trial_index":116,"time_elapsed":375969,"internal_node_id":"0.0-116.0","participant_id":"A1QEQOI98976S0"},{"rt":1027,"stimulus":"stimuli/67.jpg","button_pressed":"1","name":"emotionType","trial_type":"image-button-response","trial_index":117,"time_elapsed":376997,"internal_node_id":"0.0-117.0","participant_id":"A1QEQOI98976S0"},{"rt":null,"stimulus":"<p style=\"font-size: 48px;\">+</p>","key_press":null,"Name":"fixation","trial_type":"html-keyboard-response","trial_index":118,"time_elapsed":377998,"internal_node_id":"0.0-118.0","participant_id":"A1QEQOI98976S0"},{"rt":null,"stimulus":"stimuli/39.jpg","button_pressed":null,"name":"noRating","trial_type":"image-button-response","trial_index":119,"time_elapsed":383000,"internal_node_id":"0.0-119.0","participant_id":"A1QEQOI98976S0"},{"rt":2203,"stimulus":"stimuli/39.jpg","button_pressed":"0","name":"valence","trial_type":"image-button-response","trial_index":120,"time_elapsed":385204,"internal_node_id":"0.0-120.0","participant_id":"A1QEQOI98976S0"},{"rt":2451,"response":"52","name":"rating","trial_type":"image-slider-response","trial_index":121,"time_elapsed":387656,"internal_node_id":"0.0-121.0","participant_id":"A1QEQOI98976S0"},{"rt":1587,"stimulus":"stimuli/39.jpg","button_pressed":"0","name":"emotionType","trial_type":"image-button-response","trial_index":122,"time_elapsed":389244,"internal_node_id":"0.0-122.0","participant_id":"A1QEQOI98976S0"},{"rt":null,"stimulus":"<p style=\"font-size: 48px;\">+</p>","key_press":null,"Name":"fixation","trial_type":"html-keyboard-response","trial_index":123,"time_elapsed":390245,"internal_node_id":"0.0-123.0","participant_id":"A1QEQOI98976S0"},{"rt":null,"stimulus":"stimuli/49.jpg","button_pressed":null,"name":"noRating","trial_type":"image-button-response","trial_index":124,"time_elapsed":395247,"internal_node_id":"0.0-124.0","participant_id":"A1QEQOI98976S0"},{"rt":1483,"stimulus":"stimuli/49.jpg","button_pressed":"0","name":"valence","trial_type":"image-button-response","trial_index":125,"time_elapsed":396731,"internal_node_id":"0.0-125.0","participant_id":"A1QEQOI98976S0"},{"rt":2434,"response":"56","name":"rating","trial_type":"image-slider-response","trial_index":126,"time_elapsed":399167,"internal_node_id":"0.0-126.0","participant_id":"A1QEQOI98976S0"},{"rt":1188,"stimulus":"stimuli/49.jpg","button_pressed":"0","name":"emotionType","trial_type":"image-button-response","trial_index":127,"time_elapsed":400356,"internal_node_id":"0.0-127.0","participant_id":"A1QEQOI98976S0"},{"rt":null,"stimulus":"<p style=\"font-size: 48px;\">+</p>","key_press":null,"Name":"fixation","trial_type":"html-keyboard-response","trial_index":128,"time_elapsed":401358,"internal_node_id":"0.0-128.0","participant_id":"A1QEQOI98976S0"},{"rt":null,"stimulus":"stimuli/27.jpg","button_pressed":null,"name":"noRating","trial_type":"image-button-response","trial_index":129,"time_elapsed":406359,"internal_node_id":"0.0-129.0","participant_id":"A1QEQOI98976S0"},{"rt":1494,"stimulus":"stimuli/27.jpg","button_pressed":"0","name":"valence","trial_type":"image-button-response","trial_index":130,"time_elapsed":407854,"internal_node_id":"0.0-130.0","participant_id":"A1QEQOI98976S0"},{"rt":1622,"response":"75","name":"rating","trial_type":"image-slider-response","trial_index":131,"time_elapsed":409477,"internal_node_id":"0.0-131.0","participant_id":"A1QEQOI98976S0"},{"rt":1158,"stimulus":"stimuli/27.jpg","button_pressed":"1","name":"emotionType","trial_type":"image-button-response","trial_index":132,"time_elapsed":410637,"internal_node_id":"0.0-132.0","participant_id":"A1QEQOI98976S0"},{"rt":null,"stimulus":"<p style=\"font-size: 48px;\">+</p>","key_press":null,"Name":"fixation","trial_type":"html-keyboard-response","trial_index":133,"time_elapsed":412138,"internal_node_id":"0.0-133.0","participant_id":"A1QEQOI98976S0"},{"rt":null,"stimulus":"stimuli/46.jpg","button_pressed":null,"name":"noRating","trial_type":"image-button-response","trial_index":134,"time_elapsed":417140,"internal_node_id":"0.0-134.0","participant_id":"A1QEQOI98976S0"},{"rt":1296,"stimulus":"stimuli/46.jpg","button_pressed":"0","name":"valence","trial_type":"image-button-response","trial_index":135,"time_elapsed":418437,"internal_node_id":"0.0-135.0","participant_id":"A1QEQOI98976S0"},{"rt":2010,"response":"68","name":"rating","trial_type":"image-slider-response","trial_index":136,"time_elapsed":420449,"internal_node_id":"0.0-136.0","participant_id":"A1QEQOI98976S0"},{"rt":1417,"stimulus":"stimuli/46.jpg","button_pressed":"0","name":"emotionType","trial_type":"image-button-response","trial_index":137,"time_elapsed":421867,"internal_node_id":"0.0-137.0","participant_id":"A1QEQOI98976S0"},{"rt":3898,"responses":"{\"Q0\":\"we\"}","trial_type":"survey-text","trial_index":138,"time_elapsed":425766,"internal_node_id":"0.0-138.0-0.0","participant_id":"A1QEQOI98976S0"},{"rt":null,"stimulus":"<p style=\"font-size: 48px;\">+</p>","key_press":null,"Name":"fixation","trial_type":"html-keyboard-response","trial_index":139,"time_elapsed":427269,"internal_node_id":"0.0-139.0","participant_id":"A1QEQOI98976S0"},{"rt":null,"stimulus":"stimuli/66.jpg","button_pressed":null,"name":"noRating","trial_type":"image-button-response","trial_index":140,"time_elapsed":432270,"internal_node_id":"0.0-140.0","participant_id":"A1QEQOI98976S0"},{"rt":1608,"stimulus":"stimuli/66.jpg","button_pressed":"0","name":"valence","trial_type":"image-button-response","trial_index":141,"time_elapsed":433880,"internal_node_id":"0.0-141.0","participant_id":"A1QEQOI98976S0"},{"rt":2050,"response":"92","name":"rating","trial_type":"image-slider-response","trial_index":142,"time_elapsed":435930,"internal_node_id":"0.0-142.0","participant_id":"A1QEQOI98976S0"},{"rt":1177,"stimulus":"stimuli/66.jpg","button_pressed":"1","name":"emotionType","trial_type":"image-button-response","trial_index":143,"time_elapsed":437109,"internal_node_id":"0.0-143.0","participant_id":"A1QEQOI98976S0"},{"rt":null,"stimulus":"<p style=\"font-size: 48px;\">+</p>","key_press":null,"Name":"fixation","trial_type":"html-keyboard-response","trial_index":144,"time_elapsed":438610,"internal_node_id":"0.0-144.0","participant_id":"A1QEQOI98976S0"},{"rt":null,"stimulus":"stimuli/32.jpg","button_pressed":null,"name":"noRating","trial_type":"image-button-response","trial_index":145,"time_elapsed":443613,"internal_node_id":"0.0-145.0","participant_id":"A1QEQOI98976S0"},{"rt":1031,"stimulus":"stimuli/32.jpg","button_pressed":"0","name":"valence","trial_type":"image-button-response","trial_index":146,"time_elapsed":444645,"internal_node_id":"0.0-146.0","participant_id":"A1QEQOI98976S0"},{"rt":1900,"response":"66","name":"rating","trial_type":"image-slider-response","trial_index":147,"time_elapsed":446547,"internal_node_id":"0.0-147.0","participant_id":"A1QEQOI98976S0"},{"rt":939,"stimulus":"stimuli/32.jpg","button_pressed":"0","name":"emotionType","trial_type":"image-button-response","trial_index":148,"time_elapsed":447488,"internal_node_id":"0.0-148.0","participant_id":"A1QEQOI98976S0"},{"rt":null,"stimulus":"<p style=\"font-size: 48px;\">+</p>","key_press":null,"Name":"fixation","trial_type":"html-keyboard-response","trial_index":149,"time_elapsed":448990,"internal_node_id":"0.0-149.0","participant_id":"A1QEQOI98976S0"},{"rt":null,"stimulus":"stimuli/65.jpg","button_pressed":null,"name":"noRating","trial_type":"image-button-response","trial_index":150,"time_elapsed":453992,"internal_node_id":"0.0-150.0","participant_id":"A1QEQOI98976S0"},{"rt":1633,"stimulus":"stimuli/65.jpg","button_pressed":"0","name":"valence","trial_type":"image-button-response","trial_index":151,"time_elapsed":455627,"internal_node_id":"0.0-151.0","participant_id":"A1QEQOI98976S0"},{"rt":2301,"response":"74","name":"rating","trial_type":"image-slider-response","trial_index":152,"time_elapsed":457929,"internal_node_id":"0.0-152.0","participant_id":"A1QEQOI98976S0"},{"rt":1266,"stimulus":"stimuli/65.jpg","button_pressed":"1","name":"emotionType","trial_type":"image-button-response","trial_index":153,"time_elapsed":459196,"internal_node_id":"0.0-153.0","participant_id":"A1QEQOI98976S0"},{"rt":null,"stimulus":"<p style=\"font-size: 48px;\">+</p>","key_press":null,"Name":"fixation","trial_type":"html-keyboard-response","trial_index":154,"time_elapsed":460698,"internal_node_id":"0.0-154.0","participant_id":"A1QEQOI98976S0"},{"rt":null,"stimulus":"stimuli/20.jpg","button_pressed":null,"name":"noRating","trial_type":"image-button-response","trial_index":155,"time_elapsed":465700,"internal_node_id":"0.0-155.0","participant_id":"A1QEQOI98976S0"},{"rt":4816,"stimulus":"stimuli/20.jpg","button_pressed":"0","name":"valence","trial_type":"image-button-response","trial_index":156,"time_elapsed":470517,"internal_node_id":"0.0-156.0","participant_id":"A1QEQOI98976S0"},{"rt":2343,"response":"55","name":"rating","trial_type":"image-slider-response","trial_index":157,"time_elapsed":472861,"internal_node_id":"0.0-157.0","participant_id":"A1QEQOI98976S0"},{"rt":2096,"stimulus":"stimuli/20.jpg","button_pressed":"1","name":"emotionType","trial_type":"image-button-response","trial_index":158,"time_elapsed":474958,"internal_node_id":"0.0-158.0","participant_id":"A1QEQOI98976S0"},{"rt":null,"stimulus":"<p style=\"font-size: 48px;\">+</p>","key_press":null,"Name":"fixation","trial_type":"html-keyboard-response","trial_index":159,"time_elapsed":475960,"internal_node_id":"0.0-159.0","participant_id":"A1QEQOI98976S0"},{"rt":null,"stimulus":"stimuli/11.jpg","button_pressed":null,"name":"noRating","trial_type":"image-button-response","trial_index":160,"time_elapsed":480962,"internal_node_id":"0.0-160.0","participant_id":"A1QEQOI98976S0"},{"rt":1793,"stimulus":"stimuli/11.jpg","button_pressed":"0","name":"valence","trial_type":"image-button-response","trial_index":161,"time_elapsed":482755,"internal_node_id":"0.0-161.0","participant_id":"A1QEQOI98976S0"},{"rt":2352,"response":"61","name":"rating","trial_type":"image-slider-response","trial_index":162,"time_elapsed":485108,"internal_node_id":"0.0-162.0","participant_id":"A1QEQOI98976S0"},{"rt":1546,"stimulus":"stimuli/11.jpg","button_pressed":"1","name":"emotionType","trial_type":"image-button-response","trial_index":163,"time_elapsed":486656,"internal_node_id":"0.0-163.0","participant_id":"A1QEQOI98976S0"},{"rt":4775,"stimulus":"stimuli/ins/Slide8.JPG","button_pressed":"0","trial_type":"image-button-response","trial_index":164,"time_elapsed":491433,"internal_node_id":"0.0-164.0","participant_id":"A1QEQOI98976S0"}]