[{"rt":6549,"responses":"{\"Q0\":\"A1SHLWKA0UH1IS\"}","trial_type":"survey-text","trial_index":0,"time_elapsed":6552,"internal_node_id":"0.0-0.0-0.0","participant_id":"A1SHLWKA0UH1IS"},{"rt":8364,"stimulus":"stimuli/ins/Slide1.JPG","button_pressed":"0","Name":"instructions","trial_type":"image-button-response","trial_index":1,"time_elapsed":14919,"internal_node_id":"0.0-1.0","participant_id":"A1SHLWKA0UH1IS"},{"rt":10957,"stimulus":"stimuli/ins/Slide2.JPG","button_pressed":"0","Name":"instructions","trial_type":"image-button-response","trial_index":2,"time_elapsed":25878,"internal_node_id":"0.0-2.0","participant_id":"A1SHLWKA0UH1IS"},{"rt":2495,"stimulus":"stimuli/ins/Slide3.JPG","button_pressed":"0","Name":"instructions","trial_type":"image-button-response","trial_index":3,"time_elapsed":28374,"internal_node_id":"0.0-3.0","participant_id":"A1SHLWKA0UH1IS"},{"rt":3263,"stimulus":"stimuli/ins/Slide4.JPG","button_pressed":"0","Name":"instructions","trial_type":"image-button-response","trial_index":4,"time_elapsed":31638,"internal_node_id":"0.0-4.0","participant_id":"A1SHLWKA0UH1IS"},{"rt":1583,"stimulus":"stimuli/ins/Slide5.JPG","button_pressed":"0","Name":"instructions","trial_type":"image-button-response","trial_index":5,"time_elapsed":33222,"internal_node_id":"0.0-5.0","participant_id":"A1SHLWKA0UH1IS"},{"rt":1951,"stimulus":"stimuli/ins/Slide6.JPG","button_pressed":"0","Name":"instructions","trial_type":"image-button-response","trial_index":6,"time_elapsed":35174,"internal_node_id":"0.0-6.0","participant_id":"A1SHLWKA0UH1IS"},{"rt":1079,"stimulus":"stimuli/ins/Slide7.JPG","button_pressed":"0","Name":"instructions","trial_type":"image-button-response","trial_index":7,"time_elapsed":36254,"internal_node_id":"0.0-7.0","participant_id":"A1SHLWKA0UH1IS"},{"rt":6631,"responses":"{\"Q0\":\"but\"}","trial_type":"survey-text","trial_index":8,"time_elapsed":42885,"internal_node_id":"0.0-8.0-0.0","participant_id":"A1SHLWKA0UH1IS"},{"rt":null,"stimulus":"<p style=\"font-size: 48px;\">+</p>","key_press":null,"Name":"fixation","trial_type":"html-keyboard-response","trial_index":9,"time_elapsed":43889,"internal_node_id":"0.0-9.0","participant_id":"A1SHLWKA0UH1IS"},{"rt":null,"stimulus":"stimuli/52.jpg","button_pressed":null,"name":"noRating","trial_type":"image-button-response","trial_index":10,"time_elapsed":48893,"internal_node_id":"0.0-10.0","participant_id":"A1SHLWKA0UH1IS"},{"rt":2110,"stimulus":"stimuli/52.jpg","button_pressed":"2","name":"valence","trial_type":"image-button-response","trial_index":11,"time_elapsed":51005,"internal_node_id":"0.0-11.0","participant_id":"A1SHLWKA0UH1IS"},{"rt":5030,"response":"3","name":"rating","trial_type":"image-slider-response","trial_index":12,"time_elapsed":56037,"internal_node_id":"0.0-12.0","participant_id":"A1SHLWKA0UH1IS"},{"rt":11789,"stimulus":"stimuli/52.jpg","button_pressed":"0","name":"emotionType","trial_type":"image-button-response","trial_index":13,"time_elapsed":67828,"internal_node_id":"0.0-13.0","participant_id":"A1SHLWKA0UH1IS"},{"rt":null,"stimulus":"<p style=\"font-size: 48px;\">+</p>","key_press":null,"Name":"fixation","trial_type":"html-keyboard-response","trial_index":14,"time_elapsed":69331,"internal_node_id":"0.0-14.0","participant_id":"A1SHLWKA0UH1IS"},{"rt":null,"stimulus":"stimuli/14.jpg","button_pressed":null,"name":"noRating","trial_type":"image-button-response","trial_index":15,"time_elapsed":74334,"internal_node_id":"0.0-15.0","participant_id":"A1SHLWKA0UH1IS"},{"rt":1924,"stimulus":"stimuli/14.jpg","button_pressed":"0","name":"valence","trial_type":"image-button-response","trial_index":16,"time_elapsed":76260,"internal_node_id":"0.0-16.0","participant_id":"A1SHLWKA0UH1IS"},{"rt":3070,"response":"16","name":"rating","trial_type":"image-slider-response","trial_index":17,"time_elapsed":79331,"internal_node_id":"0.0-17.0","participant_id":"A1SHLWKA0UH1IS"},{"rt":1287,"stimulus":"stimuli/14.jpg","button_pressed":"0","name":"emotionType","trial_type":"image-button-response","trial_index":18,"time_elapsed":80619,"internal_node_id":"0.0-18.0","participant_id":"A1SHLWKA0UH1IS"},{"rt":null,"stimulus":"<p style=\"font-size: 48px;\">+</p>","key_press":null,"Name":"fixation","trial_type":"html-keyboard-response","trial_index":19,"time_elapsed":82124,"internal_node_id":"0.0-19.0","participant_id":"A1SHLWKA0UH1IS"},{"rt":null,"stimulus":"stimuli/58.jpg","button_pressed":null,"name":"noRating","trial_type":"image-button-response","trial_index":20,"time_elapsed":87126,"internal_node_id":"0.0-20.0","participant_id":"A1SHLWKA0UH1IS"},{"rt":1859,"stimulus":"stimuli/58.jpg","button_pressed":"0","name":"valence","trial_type":"image-button-response","trial_index":21,"time_elapsed":88987,"internal_node_id":"0.0-21.0","participant_id":"A1SHLWKA0UH1IS"},{"rt":4535,"response":"27","name":"rating","trial_type":"image-slider-response","trial_index":22,"time_elapsed":93522,"internal_node_id":"0.0-22.0","participant_id":"A1SHLWKA0UH1IS"},{"rt":2543,"stimulus":"stimuli/58.jpg","button_pressed":"1","name":"emotionType","trial_type":"image-button-response","trial_index":23,"time_elapsed":96066,"internal_node_id":"0.0-23.0","participant_id":"A1SHLWKA0UH1IS"},{"rt":null,"stimulus":"<p style=\"font-size: 48px;\">+</p>","key_press":null,"Name":"fixation","trial_type":"html-keyboard-response","trial_index":24,"time_elapsed":97070,"internal_node_id":"0.0-24.0","participant_id":"A1SHLWKA0UH1IS"},{"rt":null,"stimulus":"stimuli/17.jpg","button_pressed":null,"name":"noRating","trial_type":"image-button-response","trial_index":25,"time_elapsed":102074,"internal_node_id":"0.0-25.0","participant_id":"A1SHLWKA0UH1IS"},{"rt":1623,"stimulus":"stimuli/17.jpg","button_pressed":"2","name":"valence","trial_type":"image-button-response","trial_index":26,"time_elapsed":103698,"internal_node_id":"0.0-26.0","participant_id":"A1SHLWKA0UH1IS"},{"rt":3070,"response":"2","name":"rating","trial_type":"image-slider-response","trial_index":27,"time_elapsed":106769,"internal_node_id":"0.0-27.0","participant_id":"A1SHLWKA0UH1IS"},{"rt":5663,"stimulus":"stimuli/17.jpg","button_pressed":"2","name":"emotionType","trial_type":"image-button-response","trial_index":28,"time_elapsed":112433,"internal_node_id":"0.0-28.0","participant_id":"A1SHLWKA0UH1IS"},{"rt":null,"stimulus":"<p style=\"font-size: 48px;\">+</p>","key_press":null,"Name":"fixation","trial_type":"html-keyboard-response","trial_index":29,"time_elapsed":113436,"internal_node_id":"0.0-29.0","participant_id":"A1SHLWKA0UH1IS"},{"rt":null,"stimulus":"stimuli/30.jpg","button_pressed":null,"name":"noRating","trial_type":"image-button-response","trial_index":30,"time_elapsed":118441,"internal_node_id":"0.0-30.0","participant_id":"A1SHLWKA0UH1IS"},{"rt":1576,"stimulus":"stimuli/30.jpg","button_pressed":"0","name":"valence","trial_type":"image-button-response","trial_index":31,"time_elapsed":120017,"internal_node_id":"0.0-31.0","participant_id":"A1SHLWKA0UH1IS"},{"rt":3702,"response":"6","name":"rating","trial_type":"image-slider-response","trial_index":32,"time_elapsed":123721,"internal_node_id":"0.0-32.0","participant_id":"A1SHLWKA0UH1IS"},{"rt":823,"stimulus":"stimuli/30.jpg","button_pressed":"0","name":"emotionType","trial_type":"image-button-response","trial_index":33,"time_elapsed":124545,"internal_node_id":"0.0-33.0","participant_id":"A1SHLWKA0UH1IS"},{"rt":4999,"responses":"{\"Q0\":\"rock\"}","trial_type":"survey-text","trial_index":34,"time_elapsed":129544,"internal_node_id":"0.0-34.0-0.0","participant_id":"A1SHLWKA0UH1IS"},{"rt":null,"stimulus":"<p style=\"font-size: 48px;\">+</p>","key_press":null,"Name":"fixation","trial_type":"html-keyboard-response","trial_index":35,"time_elapsed":131047,"internal_node_id":"0.0-35.0","participant_id":"A1SHLWKA0UH1IS"},{"rt":null,"stimulus":"stimuli/51.jpg","button_pressed":null,"name":"noRating","trial_type":"image-button-response","trial_index":36,"time_elapsed":136050,"internal_node_id":"0.0-36.0","participant_id":"A1SHLWKA0UH1IS"},{"rt":1452,"stimulus":"stimuli/51.jpg","button_pressed":"0","name":"valence","trial_type":"image-button-response","trial_index":37,"time_elapsed":137504,"internal_node_id":"0.0-37.0","participant_id":"A1SHLWKA0UH1IS"},{"rt":3366,"response":"54","name":"rating","trial_type":"image-slider-response","trial_index":38,"time_elapsed":140872,"internal_node_id":"0.0-38.0","participant_id":"A1SHLWKA0UH1IS"},{"rt":4262,"stimulus":"stimuli/51.jpg","button_pressed":"0","name":"emotionType","trial_type":"image-button-response","trial_index":39,"time_elapsed":145136,"internal_node_id":"0.0-39.0","participant_id":"A1SHLWKA0UH1IS"},{"rt":null,"stimulus":"<p style=\"font-size: 48px;\">+</p>","key_press":null,"Name":"fixation","trial_type":"html-keyboard-response","trial_index":40,"time_elapsed":146638,"internal_node_id":"0.0-40.0","participant_id":"A1SHLWKA0UH1IS"},{"rt":null,"stimulus":"stimuli/31.jpg","button_pressed":null,"name":"noRating","trial_type":"image-button-response","trial_index":41,"time_elapsed":151639,"internal_node_id":"0.0-41.0","participant_id":"A1SHLWKA0UH1IS"},{"rt":1672,"stimulus":"stimuli/31.jpg","button_pressed":"0","name":"valence","trial_type":"image-button-response","trial_index":42,"time_elapsed":153311,"internal_node_id":"0.0-42.0","participant_id":"A1SHLWKA0UH1IS"},{"rt":4006,"response":"31","name":"rating","trial_type":"image-slider-response","trial_index":43,"time_elapsed":157319,"internal_node_id":"0.0-43.0","participant_id":"A1SHLWKA0UH1IS"},{"rt":2718,"stimulus":"stimuli/31.jpg","button_pressed":"1","name":"emotionType","trial_type":"image-button-response","trial_index":44,"time_elapsed":160039,"internal_node_id":"0.0-44.0","participant_id":"A1SHLWKA0UH1IS"},{"rt":null,"stimulus":"<p style=\"font-size: 48px;\">+</p>","key_press":null,"Name":"fixation","trial_type":"html-keyboard-response","trial_index":45,"time_elapsed":161042,"internal_node_id":"0.0-45.0","participant_id":"A1SHLWKA0UH1IS"},{"rt":null,"stimulus":"stimuli/1.jpg","button_pressed":null,"name":"noRating","trial_type":"image-button-response","trial_index":46,"time_elapsed":166045,"internal_node_id":"0.0-46.0","participant_id":"A1SHLWKA0UH1IS"},{"rt":1448,"stimulus":"stimuli/1.jpg","button_pressed":"0","name":"valence","trial_type":"image-button-response","trial_index":47,"time_elapsed":167494,"internal_node_id":"0.0-47.0","participant_id":"A1SHLWKA0UH1IS"},{"rt":2382,"response":"10","name":"rating","trial_type":"image-slider-response","trial_index":48,"time_elapsed":169878,"internal_node_id":"0.0-48.0","participant_id":"A1SHLWKA0UH1IS"},{"rt":2039,"stimulus":"stimuli/1.jpg","button_pressed":"0","name":"emotionType","trial_type":"image-button-response","trial_index":49,"time_elapsed":171918,"internal_node_id":"0.0-49.0","participant_id":"A1SHLWKA0UH1IS"},{"rt":null,"stimulus":"<p style=\"font-size: 48px;\">+</p>","key_press":null,"Name":"fixation","trial_type":"html-keyboard-response","trial_index":50,"time_elapsed":173420,"internal_node_id":"0.0-50.0","participant_id":"A1SHLWKA0UH1IS"},{"rt":null,"stimulus":"stimuli/57.jpg","button_pressed":null,"name":"noRating","trial_type":"image-button-response","trial_index":51,"time_elapsed":178421,"internal_node_id":"0.0-51.0","participant_id":"A1SHLWKA0UH1IS"},{"rt":1727,"stimulus":"stimuli/57.jpg","button_pressed":"2","name":"valence","trial_type":"image-button-response","trial_index":52,"time_elapsed":180150,"internal_node_id":"0.0-52.0","participant_id":"A1SHLWKA0UH1IS"},{"rt":2310,"response":"8","name":"rating","trial_type":"image-slider-response","trial_index":53,"time_elapsed":182461,"internal_node_id":"0.0-53.0","participant_id":"A1SHLWKA0UH1IS"},{"rt":4951,"stimulus":"stimuli/57.jpg","button_pressed":"1","name":"emotionType","trial_type":"image-button-response","trial_index":54,"time_elapsed":187413,"internal_node_id":"0.0-54.0","participant_id":"A1SHLWKA0UH1IS"},{"rt":null,"stimulus":"<p style=\"font-size: 48px;\">+</p>","key_press":null,"Name":"fixation","trial_type":"html-keyboard-response","trial_index":55,"time_elapsed":187918,"internal_node_id":"0.0-55.0","participant_id":"A1SHLWKA0UH1IS"},{"rt":null,"stimulus":"stimuli/55.jpg","button_pressed":null,"name":"noRating","trial_type":"image-button-response","trial_index":56,"time_elapsed":192923,"internal_node_id":"0.0-56.0","participant_id":"A1SHLWKA0UH1IS"},{"rt":1400,"stimulus":"stimuli/55.jpg","button_pressed":"2","name":"valence","trial_type":"image-button-response","trial_index":57,"time_elapsed":194325,"internal_node_id":"0.0-57.0","participant_id":"A1SHLWKA0UH1IS"},{"rt":2134,"response":"2","name":"rating","trial_type":"image-slider-response","trial_index":58,"time_elapsed":196460,"internal_node_id":"0.0-58.0","participant_id":"A1SHLWKA0UH1IS"},{"rt":2527,"stimulus":"stimuli/55.jpg","button_pressed":"0","name":"emotionType","trial_type":"image-button-response","trial_index":59,"time_elapsed":198989,"internal_node_id":"0.0-59.0","participant_id":"A1SHLWKA0UH1IS"},{"rt":5007,"responses":"{\"Q0\":\"sky\"}","trial_type":"survey-text","trial_index":60,"time_elapsed":203996,"internal_node_id":"0.0-60.0-0.0","participant_id":"A1SHLWKA0UH1IS"},{"rt":null,"stimulus":"<p style=\"font-size: 48px;\">+</p>","key_press":null,"Name":"fixation","trial_type":"html-keyboard-response","trial_index":61,"time_elapsed":204998,"internal_node_id":"0.0-61.0","participant_id":"A1SHLWKA0UH1IS"},{"rt":null,"stimulus":"stimuli/36.jpg","button_pressed":null,"name":"noRating","trial_type":"image-button-response","trial_index":62,"time_elapsed":209999,"internal_node_id":"0.0-62.0","participant_id":"A1SHLWKA0UH1IS"},{"rt":1060,"stimulus":"stimuli/36.jpg","button_pressed":"2","name":"valence","trial_type":"image-button-response","trial_index":63,"time_elapsed":211060,"internal_node_id":"0.0-63.0","participant_id":"A1SHLWKA0UH1IS"},{"rt":4366,"response":"1","name":"rating","trial_type":"image-slider-response","trial_index":64,"time_elapsed":215427,"internal_node_id":"0.0-64.0","participant_id":"A1SHLWKA0UH1IS"},{"rt":3559,"stimulus":"stimuli/36.jpg","button_pressed":"1","name":"emotionType","trial_type":"image-button-response","trial_index":65,"time_elapsed":218988,"internal_node_id":"0.0-65.0","participant_id":"A1SHLWKA0UH1IS"},{"rt":null,"stimulus":"<p style=\"font-size: 48px;\">+</p>","key_press":null,"Name":"fixation","trial_type":"html-keyboard-response","trial_index":66,"time_elapsed":219491,"internal_node_id":"0.0-66.0","participant_id":"A1SHLWKA0UH1IS"},{"rt":null,"stimulus":"stimuli/41.jpg","button_pressed":null,"name":"noRating","trial_type":"image-button-response","trial_index":67,"time_elapsed":224494,"internal_node_id":"0.0-67.0","participant_id":"A1SHLWKA0UH1IS"},{"rt":1306,"stimulus":"stimuli/41.jpg","button_pressed":"2","name":"valence","trial_type":"image-button-response","trial_index":68,"time_elapsed":225803,"internal_node_id":"0.0-68.0","participant_id":"A1SHLWKA0UH1IS"},{"rt":3846,"response":"1","name":"rating","trial_type":"image-slider-response","trial_index":69,"time_elapsed":229651,"internal_node_id":"0.0-69.0","participant_id":"A1SHLWKA0UH1IS"},{"rt":2231,"stimulus":"stimuli/41.jpg","button_pressed":"0","name":"emotionType","trial_type":"image-button-response","trial_index":70,"time_elapsed":231883,"internal_node_id":"0.0-70.0","participant_id":"A1SHLWKA0UH1IS"},{"rt":null,"stimulus":"<p style=\"font-size: 48px;\">+</p>","key_press":null,"Name":"fixation","trial_type":"html-keyboard-response","trial_index":71,"time_elapsed":233387,"internal_node_id":"0.0-71.0","participant_id":"A1SHLWKA0UH1IS"},{"rt":null,"stimulus":"stimuli/46.jpg","button_pressed":null,"name":"noRating","trial_type":"image-button-response","trial_index":72,"time_elapsed":238392,"internal_node_id":"0.0-72.0","participant_id":"A1SHLWKA0UH1IS"},{"rt":1538,"stimulus":"stimuli/46.jpg","button_pressed":"0","name":"valence","trial_type":"image-button-response","trial_index":73,"time_elapsed":239931,"internal_node_id":"0.0-73.0","participant_id":"A1SHLWKA0UH1IS"},{"rt":4030,"response":"29","name":"rating","trial_type":"image-slider-response","trial_index":74,"time_elapsed":243962,"internal_node_id":"0.0-74.0","participant_id":"A1SHLWKA0UH1IS"},{"rt":3182,"stimulus":"stimuli/46.jpg","button_pressed":"0","name":"emotionType","trial_type":"image-button-response","trial_index":75,"time_elapsed":247146,"internal_node_id":"0.0-75.0","participant_id":"A1SHLWKA0UH1IS"},{"rt":null,"stimulus":"<p style=\"font-size: 48px;\">+</p>","key_press":null,"Name":"fixation","trial_type":"html-keyboard-response","trial_index":76,"time_elapsed":247649,"internal_node_id":"0.0-76.0","participant_id":"A1SHLWKA0UH1IS"},{"rt":null,"stimulus":"stimuli/24.jpg","button_pressed":null,"name":"noRating","trial_type":"image-button-response","trial_index":77,"time_elapsed":252654,"internal_node_id":"0.0-77.0","participant_id":"A1SHLWKA0UH1IS"},{"rt":1003,"stimulus":"stimuli/24.jpg","button_pressed":"0","name":"valence","trial_type":"image-button-response","trial_index":78,"time_elapsed":253658,"internal_node_id":"0.0-78.0","participant_id":"A1SHLWKA0UH1IS"},{"rt":2766,"response":"9","name":"rating","trial_type":"image-slider-response","trial_index":79,"time_elapsed":256426,"internal_node_id":"0.0-79.0","participant_id":"A1SHLWKA0UH1IS"},{"rt":1479,"stimulus":"stimuli/24.jpg","button_pressed":"1","name":"emotionType","trial_type":"image-button-response","trial_index":80,"time_elapsed":257905,"internal_node_id":"0.0-80.0","participant_id":"A1SHLWKA0UH1IS"},{"rt":null,"stimulus":"<p style=\"font-size: 48px;\">+</p>","key_press":null,"Name":"fixation","trial_type":"html-keyboard-response","trial_index":81,"time_elapsed":258908,"internal_node_id":"0.0-81.0","participant_id":"A1SHLWKA0UH1IS"},{"rt":null,"stimulus":"stimuli/34.jpg","button_pressed":null,"name":"noRating","trial_type":"image-button-response","trial_index":82,"time_elapsed":263909,"internal_node_id":"0.0-82.0","participant_id":"A1SHLWKA0UH1IS"},{"rt":1507,"stimulus":"stimuli/34.jpg","button_pressed":"0","name":"valence","trial_type":"image-button-response","trial_index":83,"time_elapsed":265417,"internal_node_id":"0.0-83.0","participant_id":"A1SHLWKA0UH1IS"},{"rt":2758,"response":"36","name":"rating","trial_type":"image-slider-response","trial_index":84,"time_elapsed":268177,"internal_node_id":"0.0-84.0","participant_id":"A1SHLWKA0UH1IS"},{"rt":1517,"stimulus":"stimuli/34.jpg","button_pressed":"0","name":"emotionType","trial_type":"image-button-response","trial_index":85,"time_elapsed":269697,"internal_node_id":"0.0-85.0","participant_id":"A1SHLWKA0UH1IS"},{"rt":3767,"responses":"{\"Q0\":\"our\"}","trial_type":"survey-text","trial_index":86,"time_elapsed":273464,"internal_node_id":"0.0-86.0-0.0","participant_id":"A1SHLWKA0UH1IS"},{"rt":null,"stimulus":"<p style=\"font-size: 48px;\">+</p>","key_press":null,"Name":"fixation","trial_type":"html-keyboard-response","trial_index":87,"time_elapsed":274466,"internal_node_id":"0.0-87.0","participant_id":"A1SHLWKA0UH1IS"},{"rt":null,"stimulus":"stimuli/63.jpg","button_pressed":null,"name":"noRating","trial_type":"image-button-response","trial_index":88,"time_elapsed":279468,"internal_node_id":"0.0-88.0","participant_id":"A1SHLWKA0UH1IS"},{"rt":2508,"stimulus":"stimuli/63.jpg","button_pressed":"2","name":"valence","trial_type":"image-button-response","trial_index":89,"time_elapsed":281976,"internal_node_id":"0.0-89.0","participant_id":"A1SHLWKA0UH1IS"},{"rt":2350,"response":"11","name":"rating","trial_type":"image-slider-response","trial_index":90,"time_elapsed":284328,"internal_node_id":"0.0-90.0","participant_id":"A1SHLWKA0UH1IS"},{"rt":1294,"stimulus":"stimuli/63.jpg","button_pressed":"2","name":"emotionType","trial_type":"image-button-response","trial_index":91,"time_elapsed":285624,"internal_node_id":"0.0-91.0","participant_id":"A1SHLWKA0UH1IS"},{"rt":null,"stimulus":"<p style=\"font-size: 48px;\">+</p>","key_press":null,"Name":"fixation","trial_type":"html-keyboard-response","trial_index":92,"time_elapsed":286625,"internal_node_id":"0.0-92.0","participant_id":"A1SHLWKA0UH1IS"},{"rt":null,"stimulus":"stimuli/15.jpg","button_pressed":null,"name":"noRating","trial_type":"image-button-response","trial_index":93,"time_elapsed":291627,"internal_node_id":"0.0-93.0","participant_id":"A1SHLWKA0UH1IS"},{"rt":1164,"stimulus":"stimuli/15.jpg","button_pressed":"0","name":"valence","trial_type":"image-button-response","trial_index":94,"time_elapsed":292791,"internal_node_id":"0.0-94.0","participant_id":"A1SHLWKA0UH1IS"},{"rt":4015,"response":"40","name":"rating","trial_type":"image-slider-response","trial_index":95,"time_elapsed":296807,"internal_node_id":"0.0-95.0","participant_id":"A1SHLWKA0UH1IS"},{"rt":1591,"stimulus":"stimuli/15.jpg","button_pressed":"0","name":"emotionType","trial_type":"image-button-response","trial_index":96,"time_elapsed":298399,"internal_node_id":"0.0-96.0","participant_id":"A1SHLWKA0UH1IS"},{"rt":null,"stimulus":"<p style=\"font-size: 48px;\">+</p>","key_press":null,"Name":"fixation","trial_type":"html-keyboard-response","trial_index":97,"time_elapsed":298901,"internal_node_id":"0.0-97.0","participant_id":"A1SHLWKA0UH1IS"},{"rt":null,"stimulus":"stimuli/69.jpg","button_pressed":null,"name":"noRating","trial_type":"image-button-response","trial_index":98,"time_elapsed":303903,"internal_node_id":"0.0-98.0","participant_id":"A1SHLWKA0UH1IS"},{"rt":1799,"stimulus":"stimuli/69.jpg","button_pressed":"0","name":"valence","trial_type":"image-button-response","trial_index":99,"time_elapsed":305702,"internal_node_id":"0.0-99.0","participant_id":"A1SHLWKA0UH1IS"},{"rt":2423,"response":"50","name":"rating","trial_type":"image-slider-response","trial_index":100,"time_elapsed":308126,"internal_node_id":"0.0-100.0","participant_id":"A1SHLWKA0UH1IS"},{"rt":975,"stimulus":"stimuli/69.jpg","button_pressed":"1","name":"emotionType","trial_type":"image-button-response","trial_index":101,"time_elapsed":309103,"internal_node_id":"0.0-101.0","participant_id":"A1SHLWKA0UH1IS"},{"rt":null,"stimulus":"<p style=\"font-size: 48px;\">+</p>","key_press":null,"Name":"fixation","trial_type":"html-keyboard-response","trial_index":102,"time_elapsed":310106,"internal_node_id":"0.0-102.0","participant_id":"A1SHLWKA0UH1IS"},{"rt":null,"stimulus":"stimuli/27.jpg","button_pressed":null,"name":"noRating","trial_type":"image-button-response","trial_index":103,"time_elapsed":315111,"internal_node_id":"0.0-103.0","participant_id":"A1SHLWKA0UH1IS"},{"rt":1918,"stimulus":"stimuli/27.jpg","button_pressed":"0","name":"valence","trial_type":"image-button-response","trial_index":104,"time_elapsed":317030,"internal_node_id":"0.0-104.0","participant_id":"A1SHLWKA0UH1IS"},{"rt":3462,"response":"8","name":"rating","trial_type":"image-slider-response","trial_index":105,"time_elapsed":320494,"internal_node_id":"0.0-105.0","participant_id":"A1SHLWKA0UH1IS"},{"rt":864,"stimulus":"stimuli/27.jpg","button_pressed":"0","name":"emotionType","trial_type":"image-button-response","trial_index":106,"time_elapsed":321358,"internal_node_id":"0.0-106.0","participant_id":"A1SHLWKA0UH1IS"},{"rt":null,"stimulus":"<p style=\"font-size: 48px;\">+</p>","key_press":null,"Name":"fixation","trial_type":"html-keyboard-response","trial_index":107,"time_elapsed":322859,"internal_node_id":"0.0-107.0","participant_id":"A1SHLWKA0UH1IS"},{"rt":null,"stimulus":"stimuli/43.jpg","button_pressed":null,"name":"noRating","trial_type":"image-button-response","trial_index":108,"time_elapsed":327861,"internal_node_id":"0.0-108.0","participant_id":"A1SHLWKA0UH1IS"},{"rt":1167,"stimulus":"stimuli/43.jpg","button_pressed":"2","name":"valence","trial_type":"image-button-response","trial_index":109,"time_elapsed":329029,"internal_node_id":"0.0-109.0","participant_id":"A1SHLWKA0UH1IS"},{"rt":2783,"response":"3","name":"rating","trial_type":"image-slider-response","trial_index":110,"time_elapsed":331813,"internal_node_id":"0.0-110.0","participant_id":"A1SHLWKA0UH1IS"},{"rt":2423,"stimulus":"stimuli/43.jpg","button_pressed":"1","name":"emotionType","trial_type":"image-button-response","trial_index":111,"time_elapsed":334237,"internal_node_id":"0.0-111.0","participant_id":"A1SHLWKA0UH1IS"},{"rt":4382,"responses":"{\"Q0\":\"course\"}","trial_type":"survey-text","trial_index":112,"time_elapsed":338621,"internal_node_id":"0.0-112.0-0.0","participant_id":"A1SHLWKA0UH1IS"},{"rt":null,"stimulus":"<p style=\"font-size: 48px;\">+</p>","key_press":null,"Name":"fixation","trial_type":"html-keyboard-response","trial_index":113,"time_elapsed":340124,"internal_node_id":"0.0-113.0","participant_id":"A1SHLWKA0UH1IS"},{"rt":null,"stimulus":"stimuli/9.jpg","button_pressed":null,"name":"noRating","trial_type":"image-button-response","trial_index":114,"time_elapsed":345128,"internal_node_id":"0.0-114.0","participant_id":"A1SHLWKA0UH1IS"},{"rt":3324,"stimulus":"stimuli/9.jpg","button_pressed":"1","name":"valence","trial_type":"image-button-response","trial_index":115,"time_elapsed":348452,"internal_node_id":"0.0-115.0","participant_id":"A1SHLWKA0UH1IS"},{"rt":3839,"response":"1","name":"rating","trial_type":"image-slider-response","trial_index":116,"time_elapsed":352292,"internal_node_id":"0.0-116.0","participant_id":"A1SHLWKA0UH1IS"},{"rt":11982,"stimulus":"stimuli/9.jpg","button_pressed":"6","name":"emotionType","trial_type":"image-button-response","trial_index":117,"time_elapsed":364276,"internal_node_id":"0.0-117.0","participant_id":"A1SHLWKA0UH1IS"},{"rt":null,"stimulus":"<p style=\"font-size: 48px;\">+</p>","key_press":null,"Name":"fixation","trial_type":"html-keyboard-response","trial_index":118,"time_elapsed":365278,"internal_node_id":"0.0-118.0","participant_id":"A1SHLWKA0UH1IS"},{"rt":null,"stimulus":"stimuli/18.jpg","button_pressed":null,"name":"noRating","trial_type":"image-button-response","trial_index":119,"time_elapsed":370283,"internal_node_id":"0.0-119.0","participant_id":"A1SHLWKA0UH1IS"},{"rt":1527,"stimulus":"stimuli/18.jpg","button_pressed":"0","name":"valence","trial_type":"image-button-response","trial_index":120,"time_elapsed":371811,"internal_node_id":"0.0-120.0","participant_id":"A1SHLWKA0UH1IS"},{"rt":4942,"response":"0","name":"rating","trial_type":"image-slider-response","trial_index":121,"time_elapsed":376755,"internal_node_id":"0.0-121.0","participant_id":"A1SHLWKA0UH1IS"},{"rt":6047,"stimulus":"stimuli/18.jpg","button_pressed":"1","name":"emotionType","trial_type":"image-button-response","trial_index":122,"time_elapsed":384747,"internal_node_id":"0.0-122.0","participant_id":"A1SHLWKA0UH1IS"},{"rt":null,"stimulus":"<p style=\"font-size: 48px;\">+</p>","key_press":null,"Name":"fixation","trial_type":"html-keyboard-response","trial_index":123,"time_elapsed":385750,"internal_node_id":"0.0-123.0","participant_id":"A1SHLWKA0UH1IS"},{"rt":null,"stimulus":"stimuli/64.jpg","button_pressed":null,"name":"noRating","trial_type":"image-button-response","trial_index":124,"time_elapsed":390754,"internal_node_id":"0.0-124.0","participant_id":"A1SHLWKA0UH1IS"},{"rt":1896,"stimulus":"stimuli/64.jpg","button_pressed":"0","name":"valence","trial_type":"image-button-response","trial_index":125,"time_elapsed":392650,"internal_node_id":"0.0-125.0","participant_id":"A1SHLWKA0UH1IS"},{"rt":2678,"response":"2","name":"rating","trial_type":"image-slider-response","trial_index":126,"time_elapsed":395330,"internal_node_id":"0.0-126.0","participant_id":"A1SHLWKA0UH1IS"},{"rt":3766,"stimulus":"stimuli/64.jpg","button_pressed":"0","name":"emotionType","trial_type":"image-button-response","trial_index":127,"time_elapsed":399098,"internal_node_id":"0.0-127.0","participant_id":"A1SHLWKA0UH1IS"},{"rt":null,"stimulus":"<p style=\"font-size: 48px;\">+</p>","key_press":null,"Name":"fixation","trial_type":"html-keyboard-response","trial_index":128,"time_elapsed":400601,"internal_node_id":"0.0-128.0","participant_id":"A1SHLWKA0UH1IS"},{"rt":null,"stimulus":"stimuli/3.jpg","button_pressed":null,"name":"noRating","trial_type":"image-button-response","trial_index":129,"time_elapsed":405602,"internal_node_id":"0.0-129.0","participant_id":"A1SHLWKA0UH1IS"},{"rt":1783,"stimulus":"stimuli/3.jpg","button_pressed":"0","name":"valence","trial_type":"image-button-response","trial_index":130,"time_elapsed":407385,"internal_node_id":"0.0-130.0","participant_id":"A1SHLWKA0UH1IS"},{"rt":2607,"response":"5","name":"rating","trial_type":"image-slider-response","trial_index":131,"time_elapsed":409993,"internal_node_id":"0.0-131.0","participant_id":"A1SHLWKA0UH1IS"},{"rt":1446,"stimulus":"stimuli/3.jpg","button_pressed":"0","name":"emotionType","trial_type":"image-button-response","trial_index":132,"time_elapsed":411441,"internal_node_id":"0.0-132.0","participant_id":"A1SHLWKA0UH1IS"},{"rt":null,"stimulus":"<p style=\"font-size: 48px;\">+</p>","key_press":null,"Name":"fixation","trial_type":"html-keyboard-response","trial_index":133,"time_elapsed":412942,"internal_node_id":"0.0-133.0","participant_id":"A1SHLWKA0UH1IS"},{"rt":null,"stimulus":"stimuli/5.jpg","button_pressed":null,"name":"noRating","trial_type":"image-button-response","trial_index":134,"time_elapsed":417944,"internal_node_id":"0.0-134.0","participant_id":"A1SHLWKA0UH1IS"},{"rt":1216,"stimulus":"stimuli/5.jpg","button_pressed":"0","name":"valence","trial_type":"image-button-response","trial_index":135,"time_elapsed":419161,"internal_node_id":"0.0-135.0","participant_id":"A1SHLWKA0UH1IS"},{"rt":2623,"response":"43","name":"rating","trial_type":"image-slider-response","trial_index":136,"time_elapsed":421784,"internal_node_id":"0.0-136.0","participant_id":"A1SHLWKA0UH1IS"},{"rt":1054,"stimulus":"stimuli/5.jpg","button_pressed":"1","name":"emotionType","trial_type":"image-button-response","trial_index":137,"time_elapsed":422840,"internal_node_id":"0.0-137.0","participant_id":"A1SHLWKA0UH1IS"},{"rt":3335,"responses":"{\"Q0\":\"we\"}","trial_type":"survey-text","trial_index":138,"time_elapsed":426176,"internal_node_id":"0.0-138.0-0.0","participant_id":"A1SHLWKA0UH1IS"},{"rt":null,"stimulus":"<p style=\"font-size: 48px;\">+</p>","key_press":null,"Name":"fixation","trial_type":"html-keyboard-response","trial_index":139,"time_elapsed":426679,"internal_node_id":"0.0-139.0","participant_id":"A1SHLWKA0UH1IS"},{"rt":null,"stimulus":"stimuli/37.jpg","button_pressed":null,"name":"noRating","trial_type":"image-button-response","trial_index":140,"time_elapsed":431683,"internal_node_id":"0.0-140.0","participant_id":"A1SHLWKA0UH1IS"},{"rt":3747,"stimulus":"stimuli/37.jpg","button_pressed":"2","name":"valence","trial_type":"image-button-response","trial_index":141,"time_elapsed":435432,"internal_node_id":"0.0-141.0","participant_id":"A1SHLWKA0UH1IS"},{"rt":2390,"response":"6","name":"rating","trial_type":"image-slider-response","trial_index":142,"time_elapsed":437823,"internal_node_id":"0.0-142.0","participant_id":"A1SHLWKA0UH1IS"},{"rt":1863,"stimulus":"stimuli/37.jpg","button_pressed":"0","name":"emotionType","trial_type":"image-button-response","trial_index":143,"time_elapsed":439688,"internal_node_id":"0.0-143.0","participant_id":"A1SHLWKA0UH1IS"},{"rt":null,"stimulus":"<p style=\"font-size: 48px;\">+</p>","key_press":null,"Name":"fixation","trial_type":"html-keyboard-response","trial_index":144,"time_elapsed":440191,"internal_node_id":"0.0-144.0","participant_id":"A1SHLWKA0UH1IS"},{"rt":null,"stimulus":"stimuli/40.jpg","button_pressed":null,"name":"noRating","trial_type":"image-button-response","trial_index":145,"time_elapsed":445193,"internal_node_id":"0.0-145.0","participant_id":"A1SHLWKA0UH1IS"},{"rt":2254,"stimulus":"stimuli/40.jpg","button_pressed":"2","name":"valence","trial_type":"image-button-response","trial_index":146,"time_elapsed":447447,"internal_node_id":"0.0-146.0","participant_id":"A1SHLWKA0UH1IS"},{"rt":2398,"response":"2","name":"rating","trial_type":"image-slider-response","trial_index":147,"time_elapsed":449847,"internal_node_id":"0.0-147.0","participant_id":"A1SHLWKA0UH1IS"},{"rt":5759,"stimulus":"stimuli/40.jpg","button_pressed":"6","name":"emotionType","trial_type":"image-button-response","trial_index":148,"time_elapsed":455607,"internal_node_id":"0.0-148.0","participant_id":"A1SHLWKA0UH1IS"},{"rt":null,"stimulus":"<p style=\"font-size: 48px;\">+</p>","key_press":null,"Name":"fixation","trial_type":"html-keyboard-response","trial_index":149,"time_elapsed":457109,"internal_node_id":"0.0-149.0","participant_id":"A1SHLWKA0UH1IS"},{"rt":null,"stimulus":"stimuli/23.jpg","button_pressed":null,"name":"noRating","trial_type":"image-button-response","trial_index":150,"time_elapsed":462114,"internal_node_id":"0.0-150.0","participant_id":"A1SHLWKA0UH1IS"},{"rt":5420,"stimulus":"stimuli/23.jpg","button_pressed":"0","name":"valence","trial_type":"image-button-response","trial_index":151,"time_elapsed":467534,"internal_node_id":"0.0-151.0","participant_id":"A1SHLWKA0UH1IS"},{"rt":2254,"response":"3","name":"rating","trial_type":"image-slider-response","trial_index":152,"time_elapsed":469790,"internal_node_id":"0.0-152.0","participant_id":"A1SHLWKA0UH1IS"},{"rt":1959,"stimulus":"stimuli/23.jpg","button_pressed":"1","name":"emotionType","trial_type":"image-button-response","trial_index":153,"time_elapsed":471750,"internal_node_id":"0.0-153.0","participant_id":"A1SHLWKA0UH1IS"},{"rt":null,"stimulus":"<p style=\"font-size: 48px;\">+</p>","key_press":null,"Name":"fixation","trial_type":"html-keyboard-response","trial_index":154,"time_elapsed":472253,"internal_node_id":"0.0-154.0","participant_id":"A1SHLWKA0UH1IS"},{"rt":null,"stimulus":"stimuli/48.jpg","button_pressed":null,"name":"noRating","trial_type":"image-button-response","trial_index":155,"time_elapsed":477257,"internal_node_id":"0.0-155.0","participant_id":"A1SHLWKA0UH1IS"},{"rt":1427,"stimulus":"stimuli/48.jpg","button_pressed":"0","name":"valence","trial_type":"image-button-response","trial_index":156,"time_elapsed":478685,"internal_node_id":"0.0-156.0","participant_id":"A1SHLWKA0UH1IS"},{"rt":2335,"response":"40","name":"rating","trial_type":"image-slider-response","trial_index":157,"time_elapsed":481021,"internal_node_id":"0.0-157.0","participant_id":"A1SHLWKA0UH1IS"},{"rt":1151,"stimulus":"stimuli/48.jpg","button_pressed":"1","name":"emotionType","trial_type":"image-button-response","trial_index":158,"time_elapsed":482173,"internal_node_id":"0.0-158.0","participant_id":"A1SHLWKA0UH1IS"},{"rt":null,"stimulus":"<p style=\"font-size: 48px;\">+</p>","key_press":null,"Name":"fixation","trial_type":"html-keyboard-response","trial_index":159,"time_elapsed":483176,"internal_node_id":"0.0-159.0","participant_id":"A1SHLWKA0UH1IS"},{"rt":null,"stimulus":"stimuli/47.jpg","button_pressed":null,"name":"noRating","trial_type":"image-button-response","trial_index":160,"time_elapsed":488180,"internal_node_id":"0.0-160.0","participant_id":"A1SHLWKA0UH1IS"},{"rt":1127,"stimulus":"stimuli/47.jpg","button_pressed":"0","name":"valence","trial_type":"image-button-response","trial_index":161,"time_elapsed":489309,"internal_node_id":"0.0-161.0","participant_id":"A1SHLWKA0UH1IS"},{"rt":2558,"response":"9","name":"rating","trial_type":"image-slider-response","trial_index":162,"time_elapsed":491869,"internal_node_id":"0.0-162.0","participant_id":"A1SHLWKA0UH1IS"},{"rt":823,"stimulus":"stimuli/47.jpg","button_pressed":"1","name":"emotionType","trial_type":"image-button-response","trial_index":163,"time_elapsed":492693,"internal_node_id":"0.0-163.0","participant_id":"A1SHLWKA0UH1IS"},{"rt":2319,"stimulus":"stimuli/ins/Slide8.JPG","button_pressed":"0","trial_type":"image-button-response","trial_index":164,"time_elapsed":495012,"internal_node_id":"0.0-164.0","participant_id":"A1SHLWKA0UH1IS"}]