[{"rt":25930,"responses":"{\"Q0\":\"A1ZTSCPETU3UJW\"}","trial_type":"survey-text","trial_index":0,"time_elapsed":25937,"internal_node_id":"0.0-0.0-0.0","participant_id":"A1ZTSCPETU3UJW"},{"rt":3651,"stimulus":"stimuli/ins/Slide1.JPG","button_pressed":"0","Name":"instructions","trial_type":"image-button-response","trial_index":1,"time_elapsed":29593,"internal_node_id":"0.0-1.0","participant_id":"A1ZTSCPETU3UJW"},{"rt":3623,"stimulus":"stimuli/ins/Slide2.JPG","button_pressed":"0","Name":"instructions","trial_type":"image-button-response","trial_index":2,"time_elapsed":33219,"internal_node_id":"0.0-2.0","participant_id":"A1ZTSCPETU3UJW"},{"rt":5350,"stimulus":"stimuli/ins/Slide3.JPG","button_pressed":"0","Name":"instructions","trial_type":"image-button-response","trial_index":3,"time_elapsed":38570,"internal_node_id":"0.0-3.0","participant_id":"A1ZTSCPETU3UJW"},{"rt":5044,"stimulus":"stimuli/ins/Slide4.JPG","button_pressed":"0","Name":"instructions","trial_type":"image-button-response","trial_index":4,"time_elapsed":43617,"internal_node_id":"0.0-4.0","participant_id":"A1ZTSCPETU3UJW"},{"rt":3840,"stimulus":"stimuli/ins/Slide5.JPG","button_pressed":"0","Name":"instructions","trial_type":"image-button-response","trial_index":5,"time_elapsed":47459,"internal_node_id":"0.0-5.0","participant_id":"A1ZTSCPETU3UJW"},{"rt":2450,"stimulus":"stimuli/ins/Slide6.JPG","button_pressed":"0","Name":"instructions","trial_type":"image-button-response","trial_index":6,"time_elapsed":49911,"internal_node_id":"0.0-6.0","participant_id":"A1ZTSCPETU3UJW"},{"rt":1084,"stimulus":"stimuli/ins/Slide7.JPG","button_pressed":"0","Name":"instructions","trial_type":"image-button-response","trial_index":7,"time_elapsed":50998,"internal_node_id":"0.0-7.0","participant_id":"A1ZTSCPETU3UJW"},{"rt":14405,"responses":"{\"Q0\":\"but\"}","trial_type":"survey-text","trial_index":8,"time_elapsed":65404,"internal_node_id":"0.0-8.0-0.0","participant_id":"A1ZTSCPETU3UJW"},{"rt":null,"stimulus":"<p style=\"font-size: 48px;\">+</p>","key_press":null,"Name":"fixation","trial_type":"html-keyboard-response","trial_index":9,"time_elapsed":65907,"internal_node_id":"0.0-9.0","participant_id":"A1ZTSCPETU3UJW"},{"rt":null,"stimulus":"stimuli/26.jpg","button_pressed":null,"name":"noRating","trial_type":"image-button-response","trial_index":10,"time_elapsed":70911,"internal_node_id":"0.0-10.0","participant_id":"A1ZTSCPETU3UJW"},{"rt":2002,"stimulus":"stimuli/26.jpg","button_pressed":"0","name":"valence","trial_type":"image-button-response","trial_index":11,"time_elapsed":72914,"internal_node_id":"0.0-11.0","participant_id":"A1ZTSCPETU3UJW"},{"rt":2779,"response":"42","name":"rating","trial_type":"image-slider-response","trial_index":12,"time_elapsed":75698,"internal_node_id":"0.0-12.0","participant_id":"A1ZTSCPETU3UJW"},{"rt":2767,"stimulus":"stimuli/26.jpg","button_pressed":"1","name":"emotionType","trial_type":"image-button-response","trial_index":13,"time_elapsed":78468,"internal_node_id":"0.0-13.0","participant_id":"A1ZTSCPETU3UJW"},{"rt":null,"stimulus":"<p style=\"font-size: 48px;\">+</p>","key_press":null,"Name":"fixation","trial_type":"html-keyboard-response","trial_index":14,"time_elapsed":78972,"internal_node_id":"0.0-14.0","participant_id":"A1ZTSCPETU3UJW"},{"rt":null,"stimulus":"stimuli/16.jpg","button_pressed":null,"name":"noRating","trial_type":"image-button-response","trial_index":15,"time_elapsed":83974,"internal_node_id":"0.0-15.0","participant_id":"A1ZTSCPETU3UJW"},{"rt":1774,"stimulus":"stimuli/16.jpg","button_pressed":"0","name":"valence","trial_type":"image-button-response","trial_index":16,"time_elapsed":85750,"internal_node_id":"0.0-16.0","participant_id":"A1ZTSCPETU3UJW"},{"rt":2748,"response":"23","name":"rating","trial_type":"image-slider-response","trial_index":17,"time_elapsed":88500,"internal_node_id":"0.0-17.0","participant_id":"A1ZTSCPETU3UJW"},{"rt":1232,"stimulus":"stimuli/16.jpg","button_pressed":"1","name":"emotionType","trial_type":"image-button-response","trial_index":18,"time_elapsed":89734,"internal_node_id":"0.0-18.0","participant_id":"A1ZTSCPETU3UJW"},{"rt":null,"stimulus":"<p style=\"font-size: 48px;\">+</p>","key_press":null,"Name":"fixation","trial_type":"html-keyboard-response","trial_index":19,"time_elapsed":91236,"internal_node_id":"0.0-19.0","participant_id":"A1ZTSCPETU3UJW"},{"rt":null,"stimulus":"stimuli/15.jpg","button_pressed":null,"name":"noRating","trial_type":"image-button-response","trial_index":20,"time_elapsed":96239,"internal_node_id":"0.0-20.0","participant_id":"A1ZTSCPETU3UJW"},{"rt":1366,"stimulus":"stimuli/15.jpg","button_pressed":"0","name":"valence","trial_type":"image-button-response","trial_index":21,"time_elapsed":97607,"internal_node_id":"0.0-21.0","participant_id":"A1ZTSCPETU3UJW"},{"rt":2554,"response":"28","name":"rating","trial_type":"image-slider-response","trial_index":22,"time_elapsed":100163,"internal_node_id":"0.0-22.0","participant_id":"A1ZTSCPETU3UJW"},{"rt":2279,"stimulus":"stimuli/15.jpg","button_pressed":"0","name":"emotionType","trial_type":"image-button-response","trial_index":23,"time_elapsed":102443,"internal_node_id":"0.0-23.0","participant_id":"A1ZTSCPETU3UJW"},{"rt":null,"stimulus":"<p style=\"font-size: 48px;\">+</p>","key_press":null,"Name":"fixation","trial_type":"html-keyboard-response","trial_index":24,"time_elapsed":102946,"internal_node_id":"0.0-24.0","participant_id":"A1ZTSCPETU3UJW"},{"rt":null,"stimulus":"stimuli/45.jpg","button_pressed":null,"name":"noRating","trial_type":"image-button-response","trial_index":25,"time_elapsed":107947,"internal_node_id":"0.0-25.0","participant_id":"A1ZTSCPETU3UJW"},{"rt":1503,"stimulus":"stimuli/45.jpg","button_pressed":"0","name":"valence","trial_type":"image-button-response","trial_index":26,"time_elapsed":109451,"internal_node_id":"0.0-26.0","participant_id":"A1ZTSCPETU3UJW"},{"rt":1983,"response":"38","name":"rating","trial_type":"image-slider-response","trial_index":27,"time_elapsed":111435,"internal_node_id":"0.0-27.0","participant_id":"A1ZTSCPETU3UJW"},{"rt":951,"stimulus":"stimuli/45.jpg","button_pressed":"0","name":"emotionType","trial_type":"image-button-response","trial_index":28,"time_elapsed":112390,"internal_node_id":"0.0-28.0","participant_id":"A1ZTSCPETU3UJW"},{"rt":null,"stimulus":"<p style=\"font-size: 48px;\">+</p>","key_press":null,"Name":"fixation","trial_type":"html-keyboard-response","trial_index":29,"time_elapsed":113392,"internal_node_id":"0.0-29.0","participant_id":"A1ZTSCPETU3UJW"},{"rt":null,"stimulus":"stimuli/55.jpg","button_pressed":null,"name":"noRating","trial_type":"image-button-response","trial_index":30,"time_elapsed":118394,"internal_node_id":"0.0-30.0","participant_id":"A1ZTSCPETU3UJW"},{"rt":1142,"stimulus":"stimuli/55.jpg","button_pressed":"0","name":"valence","trial_type":"image-button-response","trial_index":31,"time_elapsed":119537,"internal_node_id":"0.0-31.0","participant_id":"A1ZTSCPETU3UJW"},{"rt":1880,"response":"9","name":"rating","trial_type":"image-slider-response","trial_index":32,"time_elapsed":121419,"internal_node_id":"0.0-32.0","participant_id":"A1ZTSCPETU3UJW"},{"rt":1820,"stimulus":"stimuli/55.jpg","button_pressed":"0","name":"emotionType","trial_type":"image-button-response","trial_index":33,"time_elapsed":123241,"internal_node_id":"0.0-33.0","participant_id":"A1ZTSCPETU3UJW"},{"rt":4873,"responses":"{\"Q0\":\"rock\"}","trial_type":"survey-text","trial_index":34,"time_elapsed":128115,"internal_node_id":"0.0-34.0-0.0","participant_id":"A1ZTSCPETU3UJW"},{"rt":null,"stimulus":"<p style=\"font-size: 48px;\">+</p>","key_press":null,"Name":"fixation","trial_type":"html-keyboard-response","trial_index":35,"time_elapsed":129119,"internal_node_id":"0.0-35.0","participant_id":"A1ZTSCPETU3UJW"},{"rt":null,"stimulus":"stimuli/40.jpg","button_pressed":null,"name":"noRating","trial_type":"image-button-response","trial_index":36,"time_elapsed":134121,"internal_node_id":"0.0-36.0","participant_id":"A1ZTSCPETU3UJW"},{"rt":1882,"stimulus":"stimuli/40.jpg","button_pressed":"2","name":"valence","trial_type":"image-button-response","trial_index":37,"time_elapsed":136005,"internal_node_id":"0.0-37.0","participant_id":"A1ZTSCPETU3UJW"},{"rt":3474,"response":"0","name":"rating","trial_type":"image-slider-response","trial_index":38,"time_elapsed":139482,"internal_node_id":"0.0-38.0","participant_id":"A1ZTSCPETU3UJW"},{"rt":9273,"stimulus":"stimuli/40.jpg","button_pressed":"2","name":"emotionType","trial_type":"image-button-response","trial_index":39,"time_elapsed":154505,"internal_node_id":"0.0-39.0","participant_id":"A1ZTSCPETU3UJW"},{"rt":null,"stimulus":"<p style=\"font-size: 48px;\">+</p>","key_press":null,"Name":"fixation","trial_type":"html-keyboard-response","trial_index":40,"time_elapsed":155007,"internal_node_id":"0.0-40.0","participant_id":"A1ZTSCPETU3UJW"},{"rt":null,"stimulus":"stimuli/36.jpg","button_pressed":null,"name":"noRating","trial_type":"image-button-response","trial_index":41,"time_elapsed":160011,"internal_node_id":"0.0-41.0","participant_id":"A1ZTSCPETU3UJW"},{"rt":2899,"stimulus":"stimuli/36.jpg","button_pressed":"2","name":"valence","trial_type":"image-button-response","trial_index":42,"time_elapsed":162912,"internal_node_id":"0.0-42.0","participant_id":"A1ZTSCPETU3UJW"},{"rt":3927,"response":"35","name":"rating","trial_type":"image-slider-response","trial_index":43,"time_elapsed":166841,"internal_node_id":"0.0-43.0","participant_id":"A1ZTSCPETU3UJW"},{"rt":991,"stimulus":"stimuli/36.jpg","button_pressed":"2","name":"emotionType","trial_type":"image-button-response","trial_index":44,"time_elapsed":167833,"internal_node_id":"0.0-44.0","participant_id":"A1ZTSCPETU3UJW"},{"rt":null,"stimulus":"<p style=\"font-size: 48px;\">+</p>","key_press":null,"Name":"fixation","trial_type":"html-keyboard-response","trial_index":45,"time_elapsed":168336,"internal_node_id":"0.0-45.0","participant_id":"A1ZTSCPETU3UJW"},{"rt":null,"stimulus":"stimuli/7.jpg","button_pressed":null,"name":"noRating","trial_type":"image-button-response","trial_index":46,"time_elapsed":173337,"internal_node_id":"0.0-46.0","participant_id":"A1ZTSCPETU3UJW"},{"rt":1524,"stimulus":"stimuli/7.jpg","button_pressed":"0","name":"valence","trial_type":"image-button-response","trial_index":47,"time_elapsed":174864,"internal_node_id":"0.0-47.0","participant_id":"A1ZTSCPETU3UJW"},{"rt":1763,"response":"18","name":"rating","trial_type":"image-slider-response","trial_index":48,"time_elapsed":176629,"internal_node_id":"0.0-48.0","participant_id":"A1ZTSCPETU3UJW"},{"rt":3359,"stimulus":"stimuli/7.jpg","button_pressed":"1","name":"emotionType","trial_type":"image-button-response","trial_index":49,"time_elapsed":179989,"internal_node_id":"0.0-49.0","participant_id":"A1ZTSCPETU3UJW"},{"rt":null,"stimulus":"<p style=\"font-size: 48px;\">+</p>","key_press":null,"Name":"fixation","trial_type":"html-keyboard-response","trial_index":50,"time_elapsed":180991,"internal_node_id":"0.0-50.0","participant_id":"A1ZTSCPETU3UJW"},{"rt":null,"stimulus":"stimuli/21.jpg","button_pressed":null,"name":"noRating","trial_type":"image-button-response","trial_index":51,"time_elapsed":186010,"internal_node_id":"0.0-51.0","participant_id":"A1ZTSCPETU3UJW"},{"rt":1718,"stimulus":"stimuli/21.jpg","button_pressed":"0","name":"valence","trial_type":"image-button-response","trial_index":52,"time_elapsed":187732,"internal_node_id":"0.0-52.0","participant_id":"A1ZTSCPETU3UJW"},{"rt":2052,"response":"38","name":"rating","trial_type":"image-slider-response","trial_index":53,"time_elapsed":189785,"internal_node_id":"0.0-53.0","participant_id":"A1ZTSCPETU3UJW"},{"rt":1092,"stimulus":"stimuli/21.jpg","button_pressed":"0","name":"emotionType","trial_type":"image-button-response","trial_index":54,"time_elapsed":190879,"internal_node_id":"0.0-54.0","participant_id":"A1ZTSCPETU3UJW"},{"rt":null,"stimulus":"<p style=\"font-size: 48px;\">+</p>","key_press":null,"Name":"fixation","trial_type":"html-keyboard-response","trial_index":55,"time_elapsed":191382,"internal_node_id":"0.0-55.0","participant_id":"A1ZTSCPETU3UJW"},{"rt":null,"stimulus":"stimuli/60.jpg","button_pressed":null,"name":"noRating","trial_type":"image-button-response","trial_index":56,"time_elapsed":196384,"internal_node_id":"0.0-56.0","participant_id":"A1ZTSCPETU3UJW"},{"rt":5564,"stimulus":"stimuli/60.jpg","button_pressed":"2","name":"valence","trial_type":"image-button-response","trial_index":57,"time_elapsed":201949,"internal_node_id":"0.0-57.0","participant_id":"A1ZTSCPETU3UJW"},{"rt":7427,"response":"18","name":"rating","trial_type":"image-slider-response","trial_index":58,"time_elapsed":209380,"internal_node_id":"0.0-58.0","participant_id":"A1ZTSCPETU3UJW"},{"rt":3068,"stimulus":"stimuli/60.jpg","button_pressed":"2","name":"emotionType","trial_type":"image-button-response","trial_index":59,"time_elapsed":212449,"internal_node_id":"0.0-59.0","participant_id":"A1ZTSCPETU3UJW"},{"rt":4379,"responses":"{\"Q0\":\"sky\"}","trial_type":"survey-text","trial_index":60,"time_elapsed":216831,"internal_node_id":"0.0-60.0-0.0","participant_id":"A1ZTSCPETU3UJW"},{"rt":null,"stimulus":"<p style=\"font-size: 48px;\">+</p>","key_press":null,"Name":"fixation","trial_type":"html-keyboard-response","trial_index":61,"time_elapsed":217834,"internal_node_id":"0.0-61.0","participant_id":"A1ZTSCPETU3UJW"},{"rt":null,"stimulus":"stimuli/28.jpg","button_pressed":null,"name":"noRating","trial_type":"image-button-response","trial_index":62,"time_elapsed":222836,"internal_node_id":"0.0-62.0","participant_id":"A1ZTSCPETU3UJW"},{"rt":1400,"stimulus":"stimuli/28.jpg","button_pressed":"0","name":"valence","trial_type":"image-button-response","trial_index":63,"time_elapsed":224238,"internal_node_id":"0.0-63.0","participant_id":"A1ZTSCPETU3UJW"},{"rt":1890,"response":"22","name":"rating","trial_type":"image-slider-response","trial_index":64,"time_elapsed":226129,"internal_node_id":"0.0-64.0","participant_id":"A1ZTSCPETU3UJW"},{"rt":1014,"stimulus":"stimuli/28.jpg","button_pressed":"0","name":"emotionType","trial_type":"image-button-response","trial_index":65,"time_elapsed":227146,"internal_node_id":"0.0-65.0","participant_id":"A1ZTSCPETU3UJW"},{"rt":null,"stimulus":"<p style=\"font-size: 48px;\">+</p>","key_press":null,"Name":"fixation","trial_type":"html-keyboard-response","trial_index":66,"time_elapsed":228650,"internal_node_id":"0.0-66.0","participant_id":"A1ZTSCPETU3UJW"},{"rt":null,"stimulus":"stimuli/14.jpg","button_pressed":null,"name":"noRating","trial_type":"image-button-response","trial_index":67,"time_elapsed":233652,"internal_node_id":"0.0-67.0","participant_id":"A1ZTSCPETU3UJW"},{"rt":1310,"stimulus":"stimuli/14.jpg","button_pressed":"0","name":"valence","trial_type":"image-button-response","trial_index":68,"time_elapsed":234968,"internal_node_id":"0.0-68.0","participant_id":"A1ZTSCPETU3UJW"},{"rt":1475,"response":"26","name":"rating","trial_type":"image-slider-response","trial_index":69,"time_elapsed":236446,"internal_node_id":"0.0-69.0","participant_id":"A1ZTSCPETU3UJW"},{"rt":832,"stimulus":"stimuli/14.jpg","button_pressed":"0","name":"emotionType","trial_type":"image-button-response","trial_index":70,"time_elapsed":237280,"internal_node_id":"0.0-70.0","participant_id":"A1ZTSCPETU3UJW"},{"rt":null,"stimulus":"<p style=\"font-size: 48px;\">+</p>","key_press":null,"Name":"fixation","trial_type":"html-keyboard-response","trial_index":71,"time_elapsed":238282,"internal_node_id":"0.0-71.0","participant_id":"A1ZTSCPETU3UJW"},{"rt":null,"stimulus":"stimuli/2.jpg","button_pressed":null,"name":"noRating","trial_type":"image-button-response","trial_index":72,"time_elapsed":243284,"internal_node_id":"0.0-72.0","participant_id":"A1ZTSCPETU3UJW"},{"rt":987,"stimulus":"stimuli/2.jpg","button_pressed":"0","name":"valence","trial_type":"image-button-response","trial_index":73,"time_elapsed":244274,"internal_node_id":"0.0-73.0","participant_id":"A1ZTSCPETU3UJW"},{"rt":1654,"response":"23","name":"rating","trial_type":"image-slider-response","trial_index":74,"time_elapsed":245930,"internal_node_id":"0.0-74.0","participant_id":"A1ZTSCPETU3UJW"},{"rt":886,"stimulus":"stimuli/2.jpg","button_pressed":"0","name":"emotionType","trial_type":"image-button-response","trial_index":75,"time_elapsed":246820,"internal_node_id":"0.0-75.0","participant_id":"A1ZTSCPETU3UJW"},{"rt":null,"stimulus":"<p style=\"font-size: 48px;\">+</p>","key_press":null,"Name":"fixation","trial_type":"html-keyboard-response","trial_index":76,"time_elapsed":247322,"internal_node_id":"0.0-76.0","participant_id":"A1ZTSCPETU3UJW"},{"rt":null,"stimulus":"stimuli/68.jpg","button_pressed":null,"name":"noRating","trial_type":"image-button-response","trial_index":77,"time_elapsed":252324,"internal_node_id":"0.0-77.0","participant_id":"A1ZTSCPETU3UJW"},{"rt":1102,"stimulus":"stimuli/68.jpg","button_pressed":"0","name":"valence","trial_type":"image-button-response","trial_index":78,"time_elapsed":253427,"internal_node_id":"0.0-78.0","participant_id":"A1ZTSCPETU3UJW"},{"rt":2155,"response":"24","name":"rating","trial_type":"image-slider-response","trial_index":79,"time_elapsed":255586,"internal_node_id":"0.0-79.0","participant_id":"A1ZTSCPETU3UJW"},{"rt":912,"stimulus":"stimuli/68.jpg","button_pressed":"0","name":"emotionType","trial_type":"image-button-response","trial_index":80,"time_elapsed":256500,"internal_node_id":"0.0-80.0","participant_id":"A1ZTSCPETU3UJW"},{"rt":null,"stimulus":"<p style=\"font-size: 48px;\">+</p>","key_press":null,"Name":"fixation","trial_type":"html-keyboard-response","trial_index":81,"time_elapsed":257001,"internal_node_id":"0.0-81.0","participant_id":"A1ZTSCPETU3UJW"},{"rt":null,"stimulus":"stimuli/64.jpg","button_pressed":null,"name":"noRating","trial_type":"image-button-response","trial_index":82,"time_elapsed":262004,"internal_node_id":"0.0-82.0","participant_id":"A1ZTSCPETU3UJW"},{"rt":2283,"stimulus":"stimuli/64.jpg","button_pressed":"0","name":"valence","trial_type":"image-button-response","trial_index":83,"time_elapsed":264288,"internal_node_id":"0.0-83.0","participant_id":"A1ZTSCPETU3UJW"},{"rt":2865,"response":"7","name":"rating","trial_type":"image-slider-response","trial_index":84,"time_elapsed":267156,"internal_node_id":"0.0-84.0","participant_id":"A1ZTSCPETU3UJW"},{"rt":4285,"stimulus":"stimuli/64.jpg","button_pressed":"0","name":"emotionType","trial_type":"image-button-response","trial_index":85,"time_elapsed":271445,"internal_node_id":"0.0-85.0","participant_id":"A1ZTSCPETU3UJW"},{"rt":5084,"responses":"{\"Q0\":\"our\"}","trial_type":"survey-text","trial_index":86,"time_elapsed":276530,"internal_node_id":"0.0-86.0-0.0","participant_id":"A1ZTSCPETU3UJW"},{"rt":null,"stimulus":"<p style=\"font-size: 48px;\">+</p>","key_press":null,"Name":"fixation","trial_type":"html-keyboard-response","trial_index":87,"time_elapsed":278031,"internal_node_id":"0.0-87.0","participant_id":"A1ZTSCPETU3UJW"},{"rt":null,"stimulus":"stimuli/18.jpg","button_pressed":null,"name":"noRating","trial_type":"image-button-response","trial_index":88,"time_elapsed":283033,"internal_node_id":"0.0-88.0","participant_id":"A1ZTSCPETU3UJW"},{"rt":1267,"stimulus":"stimuli/18.jpg","button_pressed":"2","name":"valence","trial_type":"image-button-response","trial_index":89,"time_elapsed":284302,"internal_node_id":"0.0-89.0","participant_id":"A1ZTSCPETU3UJW"},{"rt":2575,"response":"31","name":"rating","trial_type":"image-slider-response","trial_index":90,"time_elapsed":286879,"internal_node_id":"0.0-90.0","participant_id":"A1ZTSCPETU3UJW"},{"rt":1530,"stimulus":"stimuli/18.jpg","button_pressed":"2","name":"emotionType","trial_type":"image-button-response","trial_index":91,"time_elapsed":288412,"internal_node_id":"0.0-91.0","participant_id":"A1ZTSCPETU3UJW"},{"rt":null,"stimulus":"<p style=\"font-size: 48px;\">+</p>","key_press":null,"Name":"fixation","trial_type":"html-keyboard-response","trial_index":92,"time_elapsed":289914,"internal_node_id":"0.0-92.0","participant_id":"A1ZTSCPETU3UJW"},{"rt":null,"stimulus":"stimuli/32.jpg","button_pressed":null,"name":"noRating","trial_type":"image-button-response","trial_index":93,"time_elapsed":294916,"internal_node_id":"0.0-93.0","participant_id":"A1ZTSCPETU3UJW"},{"rt":2073,"stimulus":"stimuli/32.jpg","button_pressed":"0","name":"valence","trial_type":"image-button-response","trial_index":94,"time_elapsed":296989,"internal_node_id":"0.0-94.0","participant_id":"A1ZTSCPETU3UJW"},{"rt":2200,"response":"25","name":"rating","trial_type":"image-slider-response","trial_index":95,"time_elapsed":299191,"internal_node_id":"0.0-95.0","participant_id":"A1ZTSCPETU3UJW"},{"rt":1054,"stimulus":"stimuli/32.jpg","button_pressed":"0","name":"emotionType","trial_type":"image-button-response","trial_index":96,"time_elapsed":300247,"internal_node_id":"0.0-96.0","participant_id":"A1ZTSCPETU3UJW"},{"rt":null,"stimulus":"<p style=\"font-size: 48px;\">+</p>","key_press":null,"Name":"fixation","trial_type":"html-keyboard-response","trial_index":97,"time_elapsed":300750,"internal_node_id":"0.0-97.0","participant_id":"A1ZTSCPETU3UJW"},{"rt":null,"stimulus":"stimuli/4.jpg","button_pressed":null,"name":"noRating","trial_type":"image-button-response","trial_index":98,"time_elapsed":305753,"internal_node_id":"0.0-98.0","participant_id":"A1ZTSCPETU3UJW"},{"rt":1423,"stimulus":"stimuli/4.jpg","button_pressed":"0","name":"valence","trial_type":"image-button-response","trial_index":99,"time_elapsed":307178,"internal_node_id":"0.0-99.0","participant_id":"A1ZTSCPETU3UJW"},{"rt":1716,"response":"45","name":"rating","trial_type":"image-slider-response","trial_index":100,"time_elapsed":308895,"internal_node_id":"0.0-100.0","participant_id":"A1ZTSCPETU3UJW"},{"rt":1851,"stimulus":"stimuli/4.jpg","button_pressed":"1","name":"emotionType","trial_type":"image-button-response","trial_index":101,"time_elapsed":310749,"internal_node_id":"0.0-101.0","participant_id":"A1ZTSCPETU3UJW"},{"rt":null,"stimulus":"<p style=\"font-size: 48px;\">+</p>","key_press":null,"Name":"fixation","trial_type":"html-keyboard-response","trial_index":102,"time_elapsed":311752,"internal_node_id":"0.0-102.0","participant_id":"A1ZTSCPETU3UJW"},{"rt":null,"stimulus":"stimuli/51.jpg","button_pressed":null,"name":"noRating","trial_type":"image-button-response","trial_index":103,"time_elapsed":316754,"internal_node_id":"0.0-103.0","participant_id":"A1ZTSCPETU3UJW"},{"rt":1047,"stimulus":"stimuli/51.jpg","button_pressed":"0","name":"valence","trial_type":"image-button-response","trial_index":104,"time_elapsed":317802,"internal_node_id":"0.0-104.0","participant_id":"A1ZTSCPETU3UJW"},{"rt":2387,"response":"29","name":"rating","trial_type":"image-slider-response","trial_index":105,"time_elapsed":320191,"internal_node_id":"0.0-105.0","participant_id":"A1ZTSCPETU3UJW"},{"rt":1732,"stimulus":"stimuli/51.jpg","button_pressed":"0","name":"emotionType","trial_type":"image-button-response","trial_index":106,"time_elapsed":321925,"internal_node_id":"0.0-106.0","participant_id":"A1ZTSCPETU3UJW"},{"rt":null,"stimulus":"<p style=\"font-size: 48px;\">+</p>","key_press":null,"Name":"fixation","trial_type":"html-keyboard-response","trial_index":107,"time_elapsed":323428,"internal_node_id":"0.0-107.0","participant_id":"A1ZTSCPETU3UJW"},{"rt":null,"stimulus":"stimuli/42.jpg","button_pressed":null,"name":"noRating","trial_type":"image-button-response","trial_index":108,"time_elapsed":328431,"internal_node_id":"0.0-108.0","participant_id":"A1ZTSCPETU3UJW"},{"rt":1302,"stimulus":"stimuli/42.jpg","button_pressed":"2","name":"valence","trial_type":"image-button-response","trial_index":109,"time_elapsed":329733,"internal_node_id":"0.0-109.0","participant_id":"A1ZTSCPETU3UJW"},{"rt":1764,"response":"48","name":"rating","trial_type":"image-slider-response","trial_index":110,"time_elapsed":331500,"internal_node_id":"0.0-110.0","participant_id":"A1ZTSCPETU3UJW"},{"rt":933,"stimulus":"stimuli/42.jpg","button_pressed":"2","name":"emotionType","trial_type":"image-button-response","trial_index":111,"time_elapsed":332436,"internal_node_id":"0.0-111.0","participant_id":"A1ZTSCPETU3UJW"},{"rt":5218,"responses":"{\"Q0\":\"course\"}","trial_type":"survey-text","trial_index":112,"time_elapsed":337656,"internal_node_id":"0.0-112.0-0.0","participant_id":"A1ZTSCPETU3UJW"},{"rt":null,"stimulus":"<p style=\"font-size: 48px;\">+</p>","key_press":null,"Name":"fixation","trial_type":"html-keyboard-response","trial_index":113,"time_elapsed":338159,"internal_node_id":"0.0-113.0","participant_id":"A1ZTSCPETU3UJW"},{"rt":null,"stimulus":"stimuli/9.jpg","button_pressed":null,"name":"noRating","trial_type":"image-button-response","trial_index":114,"time_elapsed":343162,"internal_node_id":"0.0-114.0","participant_id":"A1ZTSCPETU3UJW"},{"rt":1171,"stimulus":"stimuli/9.jpg","button_pressed":"2","name":"valence","trial_type":"image-button-response","trial_index":115,"time_elapsed":344334,"internal_node_id":"0.0-115.0","participant_id":"A1ZTSCPETU3UJW"},{"rt":2445,"response":"56","name":"rating","trial_type":"image-slider-response","trial_index":116,"time_elapsed":346780,"internal_node_id":"0.0-116.0","participant_id":"A1ZTSCPETU3UJW"},{"rt":1059,"stimulus":"stimuli/9.jpg","button_pressed":"2","name":"emotionType","trial_type":"image-button-response","trial_index":117,"time_elapsed":347842,"internal_node_id":"0.0-117.0","participant_id":"A1ZTSCPETU3UJW"},{"rt":null,"stimulus":"<p style=\"font-size: 48px;\">+</p>","key_press":null,"Name":"fixation","trial_type":"html-keyboard-response","trial_index":118,"time_elapsed":348343,"internal_node_id":"0.0-118.0","participant_id":"A1ZTSCPETU3UJW"},{"rt":null,"stimulus":"stimuli/11.jpg","button_pressed":null,"name":"noRating","trial_type":"image-button-response","trial_index":119,"time_elapsed":353345,"internal_node_id":"0.0-119.0","participant_id":"A1ZTSCPETU3UJW"},{"rt":1324,"stimulus":"stimuli/11.jpg","button_pressed":"0","name":"valence","trial_type":"image-button-response","trial_index":120,"time_elapsed":354671,"internal_node_id":"0.0-120.0","participant_id":"A1ZTSCPETU3UJW"},{"rt":1605,"response":"32","name":"rating","trial_type":"image-slider-response","trial_index":121,"time_elapsed":356279,"internal_node_id":"0.0-121.0","participant_id":"A1ZTSCPETU3UJW"},{"rt":1036,"stimulus":"stimuli/11.jpg","button_pressed":"0","name":"emotionType","trial_type":"image-button-response","trial_index":122,"time_elapsed":357318,"internal_node_id":"0.0-122.0","participant_id":"A1ZTSCPETU3UJW"},{"rt":null,"stimulus":"<p style=\"font-size: 48px;\">+</p>","key_press":null,"Name":"fixation","trial_type":"html-keyboard-response","trial_index":123,"time_elapsed":358820,"internal_node_id":"0.0-123.0","participant_id":"A1ZTSCPETU3UJW"},{"rt":null,"stimulus":"stimuli/29.jpg","button_pressed":null,"name":"noRating","trial_type":"image-button-response","trial_index":124,"time_elapsed":363821,"internal_node_id":"0.0-124.0","participant_id":"A1ZTSCPETU3UJW"},{"rt":1088,"stimulus":"stimuli/29.jpg","button_pressed":"0","name":"valence","trial_type":"image-button-response","trial_index":125,"time_elapsed":364911,"internal_node_id":"0.0-125.0","participant_id":"A1ZTSCPETU3UJW"},{"rt":1662,"response":"28","name":"rating","trial_type":"image-slider-response","trial_index":126,"time_elapsed":366576,"internal_node_id":"0.0-126.0","participant_id":"A1ZTSCPETU3UJW"},{"rt":804,"stimulus":"stimuli/29.jpg","button_pressed":"0","name":"emotionType","trial_type":"image-button-response","trial_index":127,"time_elapsed":367381,"internal_node_id":"0.0-127.0","participant_id":"A1ZTSCPETU3UJW"},{"rt":null,"stimulus":"<p style=\"font-size: 48px;\">+</p>","key_press":null,"Name":"fixation","trial_type":"html-keyboard-response","trial_index":128,"time_elapsed":368384,"internal_node_id":"0.0-128.0","participant_id":"A1ZTSCPETU3UJW"},{"rt":null,"stimulus":"stimuli/56.jpg","button_pressed":null,"name":"noRating","trial_type":"image-button-response","trial_index":129,"time_elapsed":373385,"internal_node_id":"0.0-129.0","participant_id":"A1ZTSCPETU3UJW"},{"rt":1500,"stimulus":"stimuli/56.jpg","button_pressed":"2","name":"valence","trial_type":"image-button-response","trial_index":130,"time_elapsed":374888,"internal_node_id":"0.0-130.0","participant_id":"A1ZTSCPETU3UJW"},{"rt":2114,"response":"14","name":"rating","trial_type":"image-slider-response","trial_index":131,"time_elapsed":377004,"internal_node_id":"0.0-131.0","participant_id":"A1ZTSCPETU3UJW"},{"rt":874,"stimulus":"stimuli/56.jpg","button_pressed":"2","name":"emotionType","trial_type":"image-button-response","trial_index":132,"time_elapsed":377880,"internal_node_id":"0.0-132.0","participant_id":"A1ZTSCPETU3UJW"},{"rt":null,"stimulus":"<p style=\"font-size: 48px;\">+</p>","key_press":null,"Name":"fixation","trial_type":"html-keyboard-response","trial_index":133,"time_elapsed":378381,"internal_node_id":"0.0-133.0","participant_id":"A1ZTSCPETU3UJW"},{"rt":null,"stimulus":"stimuli/47.jpg","button_pressed":null,"name":"noRating","trial_type":"image-button-response","trial_index":134,"time_elapsed":383383,"internal_node_id":"0.0-134.0","participant_id":"A1ZTSCPETU3UJW"},{"rt":1337,"stimulus":"stimuli/47.jpg","button_pressed":"0","name":"valence","trial_type":"image-button-response","trial_index":135,"time_elapsed":384722,"internal_node_id":"0.0-135.0","participant_id":"A1ZTSCPETU3UJW"},{"rt":2022,"response":"25","name":"rating","trial_type":"image-slider-response","trial_index":136,"time_elapsed":386745,"internal_node_id":"0.0-136.0","participant_id":"A1ZTSCPETU3UJW"},{"rt":1052,"stimulus":"stimuli/47.jpg","button_pressed":"0","name":"emotionType","trial_type":"image-button-response","trial_index":137,"time_elapsed":387799,"internal_node_id":"0.0-137.0","participant_id":"A1ZTSCPETU3UJW"},{"rt":5406,"responses":"{\"Q0\":\"we\"}","trial_type":"survey-text","trial_index":138,"time_elapsed":393208,"internal_node_id":"0.0-138.0-0.0","participant_id":"A1ZTSCPETU3UJW"},{"rt":null,"stimulus":"<p style=\"font-size: 48px;\">+</p>","key_press":null,"Name":"fixation","trial_type":"html-keyboard-response","trial_index":139,"time_elapsed":393709,"internal_node_id":"0.0-139.0","participant_id":"A1ZTSCPETU3UJW"},{"rt":null,"stimulus":"stimuli/59.jpg","button_pressed":null,"name":"noRating","trial_type":"image-button-response","trial_index":140,"time_elapsed":398711,"internal_node_id":"0.0-140.0","participant_id":"A1ZTSCPETU3UJW"},{"rt":1189,"stimulus":"stimuli/59.jpg","button_pressed":"0","name":"valence","trial_type":"image-button-response","trial_index":141,"time_elapsed":399902,"internal_node_id":"0.0-141.0","participant_id":"A1ZTSCPETU3UJW"},{"rt":1832,"response":"32","name":"rating","trial_type":"image-slider-response","trial_index":142,"time_elapsed":401738,"internal_node_id":"0.0-142.0","participant_id":"A1ZTSCPETU3UJW"},{"rt":1280,"stimulus":"stimuli/59.jpg","button_pressed":"0","name":"emotionType","trial_type":"image-button-response","trial_index":143,"time_elapsed":403021,"internal_node_id":"0.0-143.0","participant_id":"A1ZTSCPETU3UJW"},{"rt":null,"stimulus":"<p style=\"font-size: 48px;\">+</p>","key_press":null,"Name":"fixation","trial_type":"html-keyboard-response","trial_index":144,"time_elapsed":403524,"internal_node_id":"0.0-144.0","participant_id":"A1ZTSCPETU3UJW"},{"rt":null,"stimulus":"stimuli/62.jpg","button_pressed":null,"name":"noRating","trial_type":"image-button-response","trial_index":145,"time_elapsed":408526,"internal_node_id":"0.0-145.0","participant_id":"A1ZTSCPETU3UJW"},{"rt":1133,"stimulus":"stimuli/62.jpg","button_pressed":"0","name":"valence","trial_type":"image-button-response","trial_index":146,"time_elapsed":409661,"internal_node_id":"0.0-146.0","participant_id":"A1ZTSCPETU3UJW"},{"rt":1957,"response":"83","name":"rating","trial_type":"image-slider-response","trial_index":147,"time_elapsed":411621,"internal_node_id":"0.0-147.0","participant_id":"A1ZTSCPETU3UJW"},{"rt":804,"stimulus":"stimuli/62.jpg","button_pressed":"1","name":"emotionType","trial_type":"image-button-response","trial_index":148,"time_elapsed":412426,"internal_node_id":"0.0-148.0","participant_id":"A1ZTSCPETU3UJW"},{"rt":null,"stimulus":"<p style=\"font-size: 48px;\">+</p>","key_press":null,"Name":"fixation","trial_type":"html-keyboard-response","trial_index":149,"time_elapsed":413428,"internal_node_id":"0.0-149.0","participant_id":"A1ZTSCPETU3UJW"},{"rt":null,"stimulus":"stimuli/39.jpg","button_pressed":null,"name":"noRating","trial_type":"image-button-response","trial_index":150,"time_elapsed":418430,"internal_node_id":"0.0-150.0","participant_id":"A1ZTSCPETU3UJW"},{"rt":869,"stimulus":"stimuli/39.jpg","button_pressed":"0","name":"valence","trial_type":"image-button-response","trial_index":151,"time_elapsed":419300,"internal_node_id":"0.0-151.0","participant_id":"A1ZTSCPETU3UJW"},{"rt":1560,"response":"26","name":"rating","trial_type":"image-slider-response","trial_index":152,"time_elapsed":420861,"internal_node_id":"0.0-152.0","participant_id":"A1ZTSCPETU3UJW"},{"rt":1092,"stimulus":"stimuli/39.jpg","button_pressed":"0","name":"emotionType","trial_type":"image-button-response","trial_index":153,"time_elapsed":421956,"internal_node_id":"0.0-153.0","participant_id":"A1ZTSCPETU3UJW"},{"rt":null,"stimulus":"<p style=\"font-size: 48px;\">+</p>","key_press":null,"Name":"fixation","trial_type":"html-keyboard-response","trial_index":154,"time_elapsed":423459,"internal_node_id":"0.0-154.0","participant_id":"A1ZTSCPETU3UJW"},{"rt":null,"stimulus":"stimuli/23.jpg","button_pressed":null,"name":"noRating","trial_type":"image-button-response","trial_index":155,"time_elapsed":428461,"internal_node_id":"0.0-155.0","participant_id":"A1ZTSCPETU3UJW"},{"rt":1696,"stimulus":"stimuli/23.jpg","button_pressed":"2","name":"valence","trial_type":"image-button-response","trial_index":156,"time_elapsed":430161,"internal_node_id":"0.0-156.0","participant_id":"A1ZTSCPETU3UJW"},{"rt":2019,"response":"52","name":"rating","trial_type":"image-slider-response","trial_index":157,"time_elapsed":432182,"internal_node_id":"0.0-157.0","participant_id":"A1ZTSCPETU3UJW"},{"rt":779,"stimulus":"stimuli/23.jpg","button_pressed":"2","name":"emotionType","trial_type":"image-button-response","trial_index":158,"time_elapsed":432964,"internal_node_id":"0.0-158.0","participant_id":"A1ZTSCPETU3UJW"},{"rt":null,"stimulus":"<p style=\"font-size: 48px;\">+</p>","key_press":null,"Name":"fixation","trial_type":"html-keyboard-response","trial_index":159,"time_elapsed":433466,"internal_node_id":"0.0-159.0","participant_id":"A1ZTSCPETU3UJW"},{"rt":null,"stimulus":"stimuli/70.jpg","button_pressed":null,"name":"noRating","trial_type":"image-button-response","trial_index":160,"time_elapsed":438470,"internal_node_id":"0.0-160.0","participant_id":"A1ZTSCPETU3UJW"},{"rt":907,"stimulus":"stimuli/70.jpg","button_pressed":"0","name":"valence","trial_type":"image-button-response","trial_index":161,"time_elapsed":439379,"internal_node_id":"0.0-161.0","participant_id":"A1ZTSCPETU3UJW"},{"rt":1645,"response":"23","name":"rating","trial_type":"image-slider-response","trial_index":162,"time_elapsed":441026,"internal_node_id":"0.0-162.0","participant_id":"A1ZTSCPETU3UJW"},{"rt":748,"stimulus":"stimuli/70.jpg","button_pressed":"1","name":"emotionType","trial_type":"image-button-response","trial_index":163,"time_elapsed":441776,"internal_node_id":"0.0-163.0","participant_id":"A1ZTSCPETU3UJW"},{"rt":4279,"stimulus":"stimuli/ins/Slide8.JPG","button_pressed":"0","trial_type":"image-button-response","trial_index":164,"time_elapsed":446058,"internal_node_id":"0.0-164.0","participant_id":"A1ZTSCPETU3UJW"}]