[{"rt":5121,"responses":"{\"Q0\":\"A234UW0G9PMSCC\"}","trial_type":"survey-text","trial_index":0,"time_elapsed":5127,"internal_node_id":"0.0-0.0-0.0","participant_id":"A234UW0G9PMSCC"},{"rt":6434,"stimulus":"stimuli/ins/Slide1.JPG","button_pressed":"0","Name":"instructions","trial_type":"image-button-response","trial_index":1,"time_elapsed":11567,"internal_node_id":"0.0-1.0","participant_id":"A234UW0G9PMSCC"},{"rt":2915,"stimulus":"stimuli/ins/Slide2.JPG","button_pressed":"0","Name":"instructions","trial_type":"image-button-response","trial_index":2,"time_elapsed":14485,"internal_node_id":"0.0-2.0","participant_id":"A234UW0G9PMSCC"},{"rt":7348,"stimulus":"stimuli/ins/Slide3.JPG","button_pressed":"0","Name":"instructions","trial_type":"image-button-response","trial_index":3,"time_elapsed":21835,"internal_node_id":"0.0-3.0","participant_id":"A234UW0G9PMSCC"},{"rt":10934,"stimulus":"stimuli/ins/Slide4.JPG","button_pressed":"0","Name":"instructions","trial_type":"image-button-response","trial_index":4,"time_elapsed":32771,"internal_node_id":"0.0-4.0","participant_id":"A234UW0G9PMSCC"},{"rt":2972,"stimulus":"stimuli/ins/Slide5.JPG","button_pressed":"0","Name":"instructions","trial_type":"image-button-response","trial_index":5,"time_elapsed":35745,"internal_node_id":"0.0-5.0","participant_id":"A234UW0G9PMSCC"},{"rt":7003,"stimulus":"stimuli/ins/Slide6.JPG","button_pressed":"0","Name":"instructions","trial_type":"image-button-response","trial_index":6,"time_elapsed":42751,"internal_node_id":"0.0-6.0","participant_id":"A234UW0G9PMSCC"},{"rt":1185,"stimulus":"stimuli/ins/Slide7.JPG","button_pressed":"0","Name":"instructions","trial_type":"image-button-response","trial_index":7,"time_elapsed":43938,"internal_node_id":"0.0-7.0","participant_id":"A234UW0G9PMSCC"},{"rt":8201,"responses":"{\"Q0\":\"but\"}","trial_type":"survey-text","trial_index":8,"time_elapsed":52142,"internal_node_id":"0.0-8.0-0.0","participant_id":"A234UW0G9PMSCC"},{"rt":null,"stimulus":"<p style=\"font-size: 48px;\">+</p>","key_press":null,"Name":"fixation","trial_type":"html-keyboard-response","trial_index":9,"time_elapsed":53646,"internal_node_id":"0.0-9.0","participant_id":"A234UW0G9PMSCC"},{"rt":null,"stimulus":"stimuli/2.jpg","button_pressed":null,"name":"noRating","trial_type":"image-button-response","trial_index":10,"time_elapsed":58655,"internal_node_id":"0.0-10.0","participant_id":"A234UW0G9PMSCC"},{"rt":1811,"stimulus":"stimuli/2.jpg","button_pressed":"0","name":"valence","trial_type":"image-button-response","trial_index":11,"time_elapsed":60470,"internal_node_id":"0.0-11.0","participant_id":"A234UW0G9PMSCC"},{"rt":7192,"response":"89","name":"rating","trial_type":"image-slider-response","trial_index":12,"time_elapsed":67667,"internal_node_id":"0.0-12.0","participant_id":"A234UW0G9PMSCC"},{"rt":5888,"stimulus":"stimuli/2.jpg","button_pressed":"0","name":"emotionType","trial_type":"image-button-response","trial_index":13,"time_elapsed":73562,"internal_node_id":"0.0-13.0","participant_id":"A234UW0G9PMSCC"},{"rt":null,"stimulus":"<p style=\"font-size: 48px;\">+</p>","key_press":null,"Name":"fixation","trial_type":"html-keyboard-response","trial_index":14,"time_elapsed":74569,"internal_node_id":"0.0-14.0","participant_id":"A234UW0G9PMSCC"},{"rt":null,"stimulus":"stimuli/67.jpg","button_pressed":null,"name":"noRating","trial_type":"image-button-response","trial_index":15,"time_elapsed":79582,"internal_node_id":"0.0-15.0","participant_id":"A234UW0G9PMSCC"},{"rt":3120,"stimulus":"stimuli/67.jpg","button_pressed":"0","name":"valence","trial_type":"image-button-response","trial_index":16,"time_elapsed":82709,"internal_node_id":"0.0-16.0","participant_id":"A234UW0G9PMSCC"},{"rt":4758,"response":"81","name":"rating","trial_type":"image-slider-response","trial_index":17,"time_elapsed":87471,"internal_node_id":"0.0-17.0","participant_id":"A234UW0G9PMSCC"},{"rt":5292,"stimulus":"stimuli/67.jpg","button_pressed":"0","name":"emotionType","trial_type":"image-button-response","trial_index":18,"time_elapsed":92769,"internal_node_id":"0.0-18.0","participant_id":"A234UW0G9PMSCC"},{"rt":null,"stimulus":"<p style=\"font-size: 48px;\">+</p>","key_press":null,"Name":"fixation","trial_type":"html-keyboard-response","trial_index":19,"time_elapsed":94276,"internal_node_id":"0.0-19.0","participant_id":"A234UW0G9PMSCC"},{"rt":null,"stimulus":"stimuli/10.jpg","button_pressed":null,"name":"noRating","trial_type":"image-button-response","trial_index":20,"time_elapsed":99289,"internal_node_id":"0.0-20.0","participant_id":"A234UW0G9PMSCC"},{"rt":1649,"stimulus":"stimuli/10.jpg","button_pressed":"0","name":"valence","trial_type":"image-button-response","trial_index":21,"time_elapsed":100942,"internal_node_id":"0.0-21.0","participant_id":"A234UW0G9PMSCC"},{"rt":5517,"response":"70","name":"rating","trial_type":"image-slider-response","trial_index":22,"time_elapsed":106464,"internal_node_id":"0.0-22.0","participant_id":"A234UW0G9PMSCC"},{"rt":4805,"stimulus":"stimuli/10.jpg","button_pressed":"1","name":"emotionType","trial_type":"image-button-response","trial_index":23,"time_elapsed":111274,"internal_node_id":"0.0-23.0","participant_id":"A234UW0G9PMSCC"},{"rt":null,"stimulus":"<p style=\"font-size: 48px;\">+</p>","key_press":null,"Name":"fixation","trial_type":"html-keyboard-response","trial_index":24,"time_elapsed":112794,"internal_node_id":"0.0-24.0","participant_id":"A234UW0G9PMSCC"},{"rt":null,"stimulus":"stimuli/46.jpg","button_pressed":null,"name":"noRating","trial_type":"image-button-response","trial_index":25,"time_elapsed":117809,"internal_node_id":"0.0-25.0","participant_id":"A234UW0G9PMSCC"},{"rt":1089,"stimulus":"stimuli/46.jpg","button_pressed":"0","name":"valence","trial_type":"image-button-response","trial_index":26,"time_elapsed":118902,"internal_node_id":"0.0-26.0","participant_id":"A234UW0G9PMSCC"},{"rt":4758,"response":"64","name":"rating","trial_type":"image-slider-response","trial_index":27,"time_elapsed":123666,"internal_node_id":"0.0-27.0","participant_id":"A234UW0G9PMSCC"},{"rt":1744,"stimulus":"stimuli/46.jpg","button_pressed":"0","name":"emotionType","trial_type":"image-button-response","trial_index":28,"time_elapsed":125416,"internal_node_id":"0.0-28.0","participant_id":"A234UW0G9PMSCC"},{"rt":null,"stimulus":"<p style=\"font-size: 48px;\">+</p>","key_press":null,"Name":"fixation","trial_type":"html-keyboard-response","trial_index":29,"time_elapsed":125933,"internal_node_id":"0.0-29.0","participant_id":"A234UW0G9PMSCC"},{"rt":null,"stimulus":"stimuli/62.jpg","button_pressed":null,"name":"noRating","trial_type":"image-button-response","trial_index":30,"time_elapsed":130937,"internal_node_id":"0.0-30.0","participant_id":"A234UW0G9PMSCC"},{"rt":1140,"stimulus":"stimuli/62.jpg","button_pressed":"0","name":"valence","trial_type":"image-button-response","trial_index":31,"time_elapsed":132081,"internal_node_id":"0.0-31.0","participant_id":"A234UW0G9PMSCC"},{"rt":4652,"response":"69","name":"rating","trial_type":"image-slider-response","trial_index":32,"time_elapsed":136739,"internal_node_id":"0.0-32.0","participant_id":"A234UW0G9PMSCC"},{"rt":1030,"stimulus":"stimuli/62.jpg","button_pressed":"0","name":"emotionType","trial_type":"image-button-response","trial_index":33,"time_elapsed":137774,"internal_node_id":"0.0-33.0","participant_id":"A234UW0G9PMSCC"},{"rt":6581,"responses":"{\"Q0\":\"rock\"}","trial_type":"survey-text","trial_index":34,"time_elapsed":144359,"internal_node_id":"0.0-34.0-0.0","participant_id":"A234UW0G9PMSCC"},{"rt":null,"stimulus":"<p style=\"font-size: 48px;\">+</p>","key_press":null,"Name":"fixation","trial_type":"html-keyboard-response","trial_index":35,"time_elapsed":144870,"internal_node_id":"0.0-35.0","participant_id":"A234UW0G9PMSCC"},{"rt":null,"stimulus":"stimuli/8.jpg","button_pressed":null,"name":"noRating","trial_type":"image-button-response","trial_index":36,"time_elapsed":149876,"internal_node_id":"0.0-36.0","participant_id":"A234UW0G9PMSCC"},{"rt":1212,"stimulus":"stimuli/8.jpg","button_pressed":"0","name":"valence","trial_type":"image-button-response","trial_index":37,"time_elapsed":151092,"internal_node_id":"0.0-37.0","participant_id":"A234UW0G9PMSCC"},{"rt":4166,"response":"66","name":"rating","trial_type":"image-slider-response","trial_index":38,"time_elapsed":155263,"internal_node_id":"0.0-38.0","participant_id":"A234UW0G9PMSCC"},{"rt":851,"stimulus":"stimuli/8.jpg","button_pressed":"0","name":"emotionType","trial_type":"image-button-response","trial_index":39,"time_elapsed":156117,"internal_node_id":"0.0-39.0","participant_id":"A234UW0G9PMSCC"},{"rt":null,"stimulus":"<p style=\"font-size: 48px;\">+</p>","key_press":null,"Name":"fixation","trial_type":"html-keyboard-response","trial_index":40,"time_elapsed":157632,"internal_node_id":"0.0-40.0","participant_id":"A234UW0G9PMSCC"},{"rt":null,"stimulus":"stimuli/12.jpg","button_pressed":null,"name":"noRating","trial_type":"image-button-response","trial_index":41,"time_elapsed":162635,"internal_node_id":"0.0-41.0","participant_id":"A234UW0G9PMSCC"},{"rt":1320,"stimulus":"stimuli/12.jpg","button_pressed":"0","name":"valence","trial_type":"image-button-response","trial_index":42,"time_elapsed":163959,"internal_node_id":"0.0-42.0","participant_id":"A234UW0G9PMSCC"},{"rt":3801,"response":"63","name":"rating","trial_type":"image-slider-response","trial_index":43,"time_elapsed":167768,"internal_node_id":"0.0-43.0","participant_id":"A234UW0G9PMSCC"},{"rt":1703,"stimulus":"stimuli/12.jpg","button_pressed":"1","name":"emotionType","trial_type":"image-button-response","trial_index":44,"time_elapsed":169475,"internal_node_id":"0.0-44.0","participant_id":"A234UW0G9PMSCC"},{"rt":null,"stimulus":"<p style=\"font-size: 48px;\">+</p>","key_press":null,"Name":"fixation","trial_type":"html-keyboard-response","trial_index":45,"time_elapsed":170490,"internal_node_id":"0.0-45.0","participant_id":"A234UW0G9PMSCC"},{"rt":null,"stimulus":"stimuli/29.jpg","button_pressed":null,"name":"noRating","trial_type":"image-button-response","trial_index":46,"time_elapsed":175498,"internal_node_id":"0.0-46.0","participant_id":"A234UW0G9PMSCC"},{"rt":1354,"stimulus":"stimuli/29.jpg","button_pressed":"0","name":"valence","trial_type":"image-button-response","trial_index":47,"time_elapsed":176856,"internal_node_id":"0.0-47.0","participant_id":"A234UW0G9PMSCC"},{"rt":10711,"response":"60","name":"rating","trial_type":"image-slider-response","trial_index":48,"time_elapsed":187573,"internal_node_id":"0.0-48.0","participant_id":"A234UW0G9PMSCC"},{"rt":1092,"stimulus":"stimuli/29.jpg","button_pressed":"0","name":"emotionType","trial_type":"image-button-response","trial_index":49,"time_elapsed":188671,"internal_node_id":"0.0-49.0","participant_id":"A234UW0G9PMSCC"},{"rt":null,"stimulus":"<p style=\"font-size: 48px;\">+</p>","key_press":null,"Name":"fixation","trial_type":"html-keyboard-response","trial_index":50,"time_elapsed":189674,"internal_node_id":"0.0-50.0","participant_id":"A234UW0G9PMSCC"},{"rt":null,"stimulus":"stimuli/7.jpg","button_pressed":null,"name":"noRating","trial_type":"image-button-response","trial_index":51,"time_elapsed":194678,"internal_node_id":"0.0-51.0","participant_id":"A234UW0G9PMSCC"},{"rt":1392,"stimulus":"stimuli/7.jpg","button_pressed":"0","name":"valence","trial_type":"image-button-response","trial_index":52,"time_elapsed":196074,"internal_node_id":"0.0-52.0","participant_id":"A234UW0G9PMSCC"},{"rt":4005,"response":"67","name":"rating","trial_type":"image-slider-response","trial_index":53,"time_elapsed":200084,"internal_node_id":"0.0-53.0","participant_id":"A234UW0G9PMSCC"},{"rt":942,"stimulus":"stimuli/7.jpg","button_pressed":"1","name":"emotionType","trial_type":"image-button-response","trial_index":54,"time_elapsed":201031,"internal_node_id":"0.0-54.0","participant_id":"A234UW0G9PMSCC"},{"rt":null,"stimulus":"<p style=\"font-size: 48px;\">+</p>","key_press":null,"Name":"fixation","trial_type":"html-keyboard-response","trial_index":55,"time_elapsed":201542,"internal_node_id":"0.0-55.0","participant_id":"A234UW0G9PMSCC"},{"rt":null,"stimulus":"stimuli/48.jpg","button_pressed":null,"name":"noRating","trial_type":"image-button-response","trial_index":56,"time_elapsed":206553,"internal_node_id":"0.0-56.0","participant_id":"A234UW0G9PMSCC"},{"rt":1009,"stimulus":"stimuli/48.jpg","button_pressed":"0","name":"valence","trial_type":"image-button-response","trial_index":57,"time_elapsed":207567,"internal_node_id":"0.0-57.0","participant_id":"A234UW0G9PMSCC"},{"rt":3853,"response":"76","name":"rating","trial_type":"image-slider-response","trial_index":58,"time_elapsed":211425,"internal_node_id":"0.0-58.0","participant_id":"A234UW0G9PMSCC"},{"rt":1068,"stimulus":"stimuli/48.jpg","button_pressed":"0","name":"emotionType","trial_type":"image-button-response","trial_index":59,"time_elapsed":212499,"internal_node_id":"0.0-59.0","participant_id":"A234UW0G9PMSCC"},{"rt":5722,"responses":"{\"Q0\":\"sky\"}","trial_type":"survey-text","trial_index":60,"time_elapsed":218225,"internal_node_id":"0.0-60.0-0.0","participant_id":"A234UW0G9PMSCC"},{"rt":null,"stimulus":"<p style=\"font-size: 48px;\">+</p>","key_press":null,"Name":"fixation","trial_type":"html-keyboard-response","trial_index":61,"time_elapsed":219231,"internal_node_id":"0.0-61.0","participant_id":"A234UW0G9PMSCC"},{"rt":null,"stimulus":"stimuli/43.jpg","button_pressed":null,"name":"noRating","trial_type":"image-button-response","trial_index":62,"time_elapsed":224240,"internal_node_id":"0.0-62.0","participant_id":"A234UW0G9PMSCC"},{"rt":17543,"stimulus":"stimuli/43.jpg","button_pressed":"0","name":"valence","trial_type":"image-button-response","trial_index":63,"time_elapsed":241787,"internal_node_id":"0.0-63.0","participant_id":"A234UW0G9PMSCC"},{"rt":3990,"response":"73","name":"rating","trial_type":"image-slider-response","trial_index":64,"time_elapsed":245783,"internal_node_id":"0.0-64.0","participant_id":"A234UW0G9PMSCC"},{"rt":965,"stimulus":"stimuli/43.jpg","button_pressed":"1","name":"emotionType","trial_type":"image-button-response","trial_index":65,"time_elapsed":246755,"internal_node_id":"0.0-65.0","participant_id":"A234UW0G9PMSCC"},{"rt":null,"stimulus":"<p style=\"font-size: 48px;\">+</p>","key_press":null,"Name":"fixation","trial_type":"html-keyboard-response","trial_index":66,"time_elapsed":247759,"internal_node_id":"0.0-66.0","participant_id":"A234UW0G9PMSCC"},{"rt":null,"stimulus":"stimuli/3.jpg","button_pressed":null,"name":"noRating","trial_type":"image-button-response","trial_index":67,"time_elapsed":252762,"internal_node_id":"0.0-67.0","participant_id":"A234UW0G9PMSCC"},{"rt":1003,"stimulus":"stimuli/3.jpg","button_pressed":"0","name":"valence","trial_type":"image-button-response","trial_index":68,"time_elapsed":253770,"internal_node_id":"0.0-68.0","participant_id":"A234UW0G9PMSCC"},{"rt":5222,"response":"63","name":"rating","trial_type":"image-slider-response","trial_index":69,"time_elapsed":258999,"internal_node_id":"0.0-69.0","participant_id":"A234UW0G9PMSCC"},{"rt":1726,"stimulus":"stimuli/3.jpg","button_pressed":"0","name":"emotionType","trial_type":"image-button-response","trial_index":70,"time_elapsed":260730,"internal_node_id":"0.0-70.0","participant_id":"A234UW0G9PMSCC"},{"rt":null,"stimulus":"<p style=\"font-size: 48px;\">+</p>","key_press":null,"Name":"fixation","trial_type":"html-keyboard-response","trial_index":71,"time_elapsed":261247,"internal_node_id":"0.0-71.0","participant_id":"A234UW0G9PMSCC"},{"rt":null,"stimulus":"stimuli/35.jpg","button_pressed":null,"name":"noRating","trial_type":"image-button-response","trial_index":72,"time_elapsed":266257,"internal_node_id":"0.0-72.0","participant_id":"A234UW0G9PMSCC"},{"rt":5283,"stimulus":"stimuli/35.jpg","button_pressed":"0","name":"valence","trial_type":"image-button-response","trial_index":73,"time_elapsed":271544,"internal_node_id":"0.0-73.0","participant_id":"A234UW0G9PMSCC"},{"rt":5392,"response":"71","name":"rating","trial_type":"image-slider-response","trial_index":74,"time_elapsed":276941,"internal_node_id":"0.0-74.0","participant_id":"A234UW0G9PMSCC"},{"rt":1275,"stimulus":"stimuli/35.jpg","button_pressed":"1","name":"emotionType","trial_type":"image-button-response","trial_index":75,"time_elapsed":278222,"internal_node_id":"0.0-75.0","participant_id":"A234UW0G9PMSCC"},{"rt":null,"stimulus":"<p style=\"font-size: 48px;\">+</p>","key_press":null,"Name":"fixation","trial_type":"html-keyboard-response","trial_index":76,"time_elapsed":279736,"internal_node_id":"0.0-76.0","participant_id":"A234UW0G9PMSCC"},{"rt":null,"stimulus":"stimuli/28.jpg","button_pressed":null,"name":"noRating","trial_type":"image-button-response","trial_index":77,"time_elapsed":284739,"internal_node_id":"0.0-77.0","participant_id":"A234UW0G9PMSCC"},{"rt":1441,"stimulus":"stimuli/28.jpg","button_pressed":"0","name":"valence","trial_type":"image-button-response","trial_index":78,"time_elapsed":286184,"internal_node_id":"0.0-78.0","participant_id":"A234UW0G9PMSCC"},{"rt":7140,"response":"60","name":"rating","trial_type":"image-slider-response","trial_index":79,"time_elapsed":293329,"internal_node_id":"0.0-79.0","participant_id":"A234UW0G9PMSCC"},{"rt":3108,"stimulus":"stimuli/28.jpg","button_pressed":"1","name":"emotionType","trial_type":"image-button-response","trial_index":80,"time_elapsed":296440,"internal_node_id":"0.0-80.0","participant_id":"A234UW0G9PMSCC"},{"rt":null,"stimulus":"<p style=\"font-size: 48px;\">+</p>","key_press":null,"Name":"fixation","trial_type":"html-keyboard-response","trial_index":81,"time_elapsed":297443,"internal_node_id":"0.0-81.0","participant_id":"A234UW0G9PMSCC"},{"rt":null,"stimulus":"stimuli/20.jpg","button_pressed":null,"name":"noRating","trial_type":"image-button-response","trial_index":82,"time_elapsed":302458,"internal_node_id":"0.0-82.0","participant_id":"A234UW0G9PMSCC"},{"rt":3705,"stimulus":"stimuli/20.jpg","button_pressed":"0","name":"valence","trial_type":"image-button-response","trial_index":83,"time_elapsed":306166,"internal_node_id":"0.0-83.0","participant_id":"A234UW0G9PMSCC"},{"rt":4364,"response":"73","name":"rating","trial_type":"image-slider-response","trial_index":84,"time_elapsed":310536,"internal_node_id":"0.0-84.0","participant_id":"A234UW0G9PMSCC"},{"rt":1817,"stimulus":"stimuli/20.jpg","button_pressed":"1","name":"emotionType","trial_type":"image-button-response","trial_index":85,"time_elapsed":312357,"internal_node_id":"0.0-85.0","participant_id":"A234UW0G9PMSCC"},{"rt":6486,"responses":"{\"Q0\":\"our\"}","trial_type":"survey-text","trial_index":86,"time_elapsed":318845,"internal_node_id":"0.0-86.0-0.0","participant_id":"A234UW0G9PMSCC"},{"rt":null,"stimulus":"<p style=\"font-size: 48px;\">+</p>","key_press":null,"Name":"fixation","trial_type":"html-keyboard-response","trial_index":87,"time_elapsed":319851,"internal_node_id":"0.0-87.0","participant_id":"A234UW0G9PMSCC"},{"rt":null,"stimulus":"stimuli/36.jpg","button_pressed":null,"name":"noRating","trial_type":"image-button-response","trial_index":88,"time_elapsed":324854,"internal_node_id":"0.0-88.0","participant_id":"A234UW0G9PMSCC"},{"rt":1108,"stimulus":"stimuli/36.jpg","button_pressed":"0","name":"valence","trial_type":"image-button-response","trial_index":89,"time_elapsed":325965,"internal_node_id":"0.0-89.0","participant_id":"A234UW0G9PMSCC"},{"rt":4779,"response":"23","name":"rating","trial_type":"image-slider-response","trial_index":90,"time_elapsed":330749,"internal_node_id":"0.0-90.0","participant_id":"A234UW0G9PMSCC"},{"rt":5031,"stimulus":"stimuli/36.jpg","button_pressed":"1","name":"emotionType","trial_type":"image-button-response","trial_index":91,"time_elapsed":335784,"internal_node_id":"0.0-91.0","participant_id":"A234UW0G9PMSCC"},{"rt":null,"stimulus":"<p style=\"font-size: 48px;\">+</p>","key_press":null,"Name":"fixation","trial_type":"html-keyboard-response","trial_index":92,"time_elapsed":337287,"internal_node_id":"0.0-92.0","participant_id":"A234UW0G9PMSCC"},{"rt":null,"stimulus":"stimuli/60.jpg","button_pressed":null,"name":"noRating","trial_type":"image-button-response","trial_index":93,"time_elapsed":342296,"internal_node_id":"0.0-93.0","participant_id":"A234UW0G9PMSCC"},{"rt":1484,"stimulus":"stimuli/60.jpg","button_pressed":"0","name":"valence","trial_type":"image-button-response","trial_index":94,"time_elapsed":343784,"internal_node_id":"0.0-94.0","participant_id":"A234UW0G9PMSCC"},{"rt":4148,"response":"56","name":"rating","trial_type":"image-slider-response","trial_index":95,"time_elapsed":347937,"internal_node_id":"0.0-95.0","participant_id":"A234UW0G9PMSCC"},{"rt":1021,"stimulus":"stimuli/60.jpg","button_pressed":"1","name":"emotionType","trial_type":"image-button-response","trial_index":96,"time_elapsed":348964,"internal_node_id":"0.0-96.0","participant_id":"A234UW0G9PMSCC"},{"rt":null,"stimulus":"<p style=\"font-size: 48px;\">+</p>","key_press":null,"Name":"fixation","trial_type":"html-keyboard-response","trial_index":97,"time_elapsed":350477,"internal_node_id":"0.0-97.0","participant_id":"A234UW0G9PMSCC"},{"rt":null,"stimulus":"stimuli/54.jpg","button_pressed":null,"name":"noRating","trial_type":"image-button-response","trial_index":98,"time_elapsed":355485,"internal_node_id":"0.0-98.0","participant_id":"A234UW0G9PMSCC"},{"rt":1054,"stimulus":"stimuli/54.jpg","button_pressed":"0","name":"valence","trial_type":"image-button-response","trial_index":99,"time_elapsed":356543,"internal_node_id":"0.0-99.0","participant_id":"A234UW0G9PMSCC"},{"rt":4322,"response":"64","name":"rating","trial_type":"image-slider-response","trial_index":100,"time_elapsed":360870,"internal_node_id":"0.0-100.0","participant_id":"A234UW0G9PMSCC"},{"rt":1440,"stimulus":"stimuli/54.jpg","button_pressed":"0","name":"emotionType","trial_type":"image-button-response","trial_index":101,"time_elapsed":362315,"internal_node_id":"0.0-101.0","participant_id":"A234UW0G9PMSCC"},{"rt":null,"stimulus":"<p style=\"font-size: 48px;\">+</p>","key_press":null,"Name":"fixation","trial_type":"html-keyboard-response","trial_index":102,"time_elapsed":363819,"internal_node_id":"0.0-102.0","participant_id":"A234UW0G9PMSCC"},{"rt":null,"stimulus":"stimuli/37.jpg","button_pressed":null,"name":"noRating","trial_type":"image-button-response","trial_index":103,"time_elapsed":368825,"internal_node_id":"0.0-103.0","participant_id":"A234UW0G9PMSCC"},{"rt":1299,"stimulus":"stimuli/37.jpg","button_pressed":"0","name":"valence","trial_type":"image-button-response","trial_index":104,"time_elapsed":370128,"internal_node_id":"0.0-104.0","participant_id":"A234UW0G9PMSCC"},{"rt":3600,"response":"31","name":"rating","trial_type":"image-slider-response","trial_index":105,"time_elapsed":373734,"internal_node_id":"0.0-105.0","participant_id":"A234UW0G9PMSCC"},{"rt":1441,"stimulus":"stimuli/37.jpg","button_pressed":"1","name":"emotionType","trial_type":"image-button-response","trial_index":106,"time_elapsed":375181,"internal_node_id":"0.0-106.0","participant_id":"A234UW0G9PMSCC"},{"rt":null,"stimulus":"<p style=\"font-size: 48px;\">+</p>","key_press":null,"Name":"fixation","trial_type":"html-keyboard-response","trial_index":107,"time_elapsed":376685,"internal_node_id":"0.0-107.0","participant_id":"A234UW0G9PMSCC"},{"rt":null,"stimulus":"stimuli/61.jpg","button_pressed":null,"name":"noRating","trial_type":"image-button-response","trial_index":108,"time_elapsed":381688,"internal_node_id":"0.0-108.0","participant_id":"A234UW0G9PMSCC"},{"rt":3983,"stimulus":"stimuli/61.jpg","button_pressed":"0","name":"valence","trial_type":"image-button-response","trial_index":109,"time_elapsed":385675,"internal_node_id":"0.0-109.0","participant_id":"A234UW0G9PMSCC"},{"rt":5280,"response":"26","name":"rating","trial_type":"image-slider-response","trial_index":110,"time_elapsed":390961,"internal_node_id":"0.0-110.0","participant_id":"A234UW0G9PMSCC"},{"rt":2120,"stimulus":"stimuli/61.jpg","button_pressed":"0","name":"emotionType","trial_type":"image-button-response","trial_index":111,"time_elapsed":393087,"internal_node_id":"0.0-111.0","participant_id":"A234UW0G9PMSCC"},{"rt":5605,"responses":"{\"Q0\":\"course\"}","trial_type":"survey-text","trial_index":112,"time_elapsed":398696,"internal_node_id":"0.0-112.0-0.0","participant_id":"A234UW0G9PMSCC"},{"rt":null,"stimulus":"<p style=\"font-size: 48px;\">+</p>","key_press":null,"Name":"fixation","trial_type":"html-keyboard-response","trial_index":113,"time_elapsed":400205,"internal_node_id":"0.0-113.0","participant_id":"A234UW0G9PMSCC"},{"rt":null,"stimulus":"stimuli/51.jpg","button_pressed":null,"name":"noRating","trial_type":"image-button-response","trial_index":114,"time_elapsed":405211,"internal_node_id":"0.0-114.0","participant_id":"A234UW0G9PMSCC"},{"rt":913,"stimulus":"stimuli/51.jpg","button_pressed":"0","name":"valence","trial_type":"image-button-response","trial_index":115,"time_elapsed":406128,"internal_node_id":"0.0-115.0","participant_id":"A234UW0G9PMSCC"},{"rt":2838,"response":"84","name":"rating","trial_type":"image-slider-response","trial_index":116,"time_elapsed":408971,"internal_node_id":"0.0-116.0","participant_id":"A234UW0G9PMSCC"},{"rt":1219,"stimulus":"stimuli/51.jpg","button_pressed":"1","name":"emotionType","trial_type":"image-button-response","trial_index":117,"time_elapsed":410197,"internal_node_id":"0.0-117.0","participant_id":"A234UW0G9PMSCC"},{"rt":null,"stimulus":"<p style=\"font-size: 48px;\">+</p>","key_press":null,"Name":"fixation","trial_type":"html-keyboard-response","trial_index":118,"time_elapsed":410708,"internal_node_id":"0.0-118.0","participant_id":"A234UW0G9PMSCC"},{"rt":null,"stimulus":"stimuli/69.jpg","button_pressed":null,"name":"noRating","trial_type":"image-button-response","trial_index":119,"time_elapsed":415715,"internal_node_id":"0.0-119.0","participant_id":"A234UW0G9PMSCC"},{"rt":3054,"stimulus":"stimuli/69.jpg","button_pressed":"0","name":"valence","trial_type":"image-button-response","trial_index":120,"time_elapsed":418773,"internal_node_id":"0.0-120.0","participant_id":"A234UW0G9PMSCC"},{"rt":3417,"response":"57","name":"rating","trial_type":"image-slider-response","trial_index":121,"time_elapsed":422194,"internal_node_id":"0.0-121.0","participant_id":"A234UW0G9PMSCC"},{"rt":1551,"stimulus":"stimuli/69.jpg","button_pressed":"0","name":"emotionType","trial_type":"image-button-response","trial_index":122,"time_elapsed":423750,"internal_node_id":"0.0-122.0","participant_id":"A234UW0G9PMSCC"},{"rt":null,"stimulus":"<p style=\"font-size: 48px;\">+</p>","key_press":null,"Name":"fixation","trial_type":"html-keyboard-response","trial_index":123,"time_elapsed":424269,"internal_node_id":"0.0-123.0","participant_id":"A234UW0G9PMSCC"},{"rt":null,"stimulus":"stimuli/9.jpg","button_pressed":null,"name":"noRating","trial_type":"image-button-response","trial_index":124,"time_elapsed":429282,"internal_node_id":"0.0-124.0","participant_id":"A234UW0G9PMSCC"},{"rt":2679,"stimulus":"stimuli/9.jpg","button_pressed":"0","name":"valence","trial_type":"image-button-response","trial_index":125,"time_elapsed":431964,"internal_node_id":"0.0-125.0","participant_id":"A234UW0G9PMSCC"},{"rt":5099,"response":"62","name":"rating","trial_type":"image-slider-response","trial_index":126,"time_elapsed":437069,"internal_node_id":"0.0-126.0","participant_id":"A234UW0G9PMSCC"},{"rt":2570,"stimulus":"stimuli/9.jpg","button_pressed":"1","name":"emotionType","trial_type":"image-button-response","trial_index":127,"time_elapsed":439645,"internal_node_id":"0.0-127.0","participant_id":"A234UW0G9PMSCC"},{"rt":null,"stimulus":"<p style=\"font-size: 48px;\">+</p>","key_press":null,"Name":"fixation","trial_type":"html-keyboard-response","trial_index":128,"time_elapsed":440157,"internal_node_id":"0.0-128.0","participant_id":"A234UW0G9PMSCC"},{"rt":null,"stimulus":"stimuli/33.jpg","button_pressed":null,"name":"noRating","trial_type":"image-button-response","trial_index":129,"time_elapsed":445163,"internal_node_id":"0.0-129.0","participant_id":"A234UW0G9PMSCC"},{"rt":1379,"stimulus":"stimuli/33.jpg","button_pressed":"0","name":"valence","trial_type":"image-button-response","trial_index":130,"time_elapsed":446546,"internal_node_id":"0.0-130.0","participant_id":"A234UW0G9PMSCC"},{"rt":2772,"response":"53","name":"rating","trial_type":"image-slider-response","trial_index":131,"time_elapsed":449322,"internal_node_id":"0.0-131.0","participant_id":"A234UW0G9PMSCC"},{"rt":1077,"stimulus":"stimuli/33.jpg","button_pressed":"0","name":"emotionType","trial_type":"image-button-response","trial_index":132,"time_elapsed":450403,"internal_node_id":"0.0-132.0","participant_id":"A234UW0G9PMSCC"},{"rt":null,"stimulus":"<p style=\"font-size: 48px;\">+</p>","key_press":null,"Name":"fixation","trial_type":"html-keyboard-response","trial_index":133,"time_elapsed":450912,"internal_node_id":"0.0-133.0","participant_id":"A234UW0G9PMSCC"},{"rt":null,"stimulus":"stimuli/31.jpg","button_pressed":null,"name":"noRating","trial_type":"image-button-response","trial_index":134,"time_elapsed":455923,"internal_node_id":"0.0-134.0","participant_id":"A234UW0G9PMSCC"},{"rt":5047,"stimulus":"stimuli/31.jpg","button_pressed":"0","name":"valence","trial_type":"image-button-response","trial_index":135,"time_elapsed":460973,"internal_node_id":"0.0-135.0","participant_id":"A234UW0G9PMSCC"},{"rt":2416,"response":"63","name":"rating","trial_type":"image-slider-response","trial_index":136,"time_elapsed":463394,"internal_node_id":"0.0-136.0","participant_id":"A234UW0G9PMSCC"},{"rt":1341,"stimulus":"stimuli/31.jpg","button_pressed":"0","name":"emotionType","trial_type":"image-button-response","trial_index":137,"time_elapsed":464739,"internal_node_id":"0.0-137.0","participant_id":"A234UW0G9PMSCC"},{"rt":3596,"responses":"{\"Q0\":\"we\"}","trial_type":"survey-text","trial_index":138,"time_elapsed":468338,"internal_node_id":"0.0-138.0-0.0","participant_id":"A234UW0G9PMSCC"},{"rt":null,"stimulus":"<p style=\"font-size: 48px;\">+</p>","key_press":null,"Name":"fixation","trial_type":"html-keyboard-response","trial_index":139,"time_elapsed":469340,"internal_node_id":"0.0-139.0","participant_id":"A234UW0G9PMSCC"},{"rt":null,"stimulus":"stimuli/40.jpg","button_pressed":null,"name":"noRating","trial_type":"image-button-response","trial_index":140,"time_elapsed":474348,"internal_node_id":"0.0-140.0","participant_id":"A234UW0G9PMSCC"},{"rt":2378,"stimulus":"stimuli/40.jpg","button_pressed":"0","name":"valence","trial_type":"image-button-response","trial_index":141,"time_elapsed":476730,"internal_node_id":"0.0-141.0","participant_id":"A234UW0G9PMSCC"},{"rt":2521,"response":"27","name":"rating","trial_type":"image-slider-response","trial_index":142,"time_elapsed":479256,"internal_node_id":"0.0-142.0","participant_id":"A234UW0G9PMSCC"},{"rt":1871,"stimulus":"stimuli/40.jpg","button_pressed":"1","name":"emotionType","trial_type":"image-button-response","trial_index":143,"time_elapsed":481136,"internal_node_id":"0.0-143.0","participant_id":"A234UW0G9PMSCC"},{"rt":null,"stimulus":"<p style=\"font-size: 48px;\">+</p>","key_press":null,"Name":"fixation","trial_type":"html-keyboard-response","trial_index":144,"time_elapsed":482645,"internal_node_id":"0.0-144.0","participant_id":"A234UW0G9PMSCC"},{"rt":null,"stimulus":"stimuli/56.jpg","button_pressed":null,"name":"noRating","trial_type":"image-button-response","trial_index":145,"time_elapsed":487654,"internal_node_id":"0.0-145.0","participant_id":"A234UW0G9PMSCC"},{"rt":1498,"stimulus":"stimuli/56.jpg","button_pressed":"0","name":"valence","trial_type":"image-button-response","trial_index":146,"time_elapsed":489156,"internal_node_id":"0.0-146.0","participant_id":"A234UW0G9PMSCC"},{"rt":3786,"response":"62","name":"rating","trial_type":"image-slider-response","trial_index":147,"time_elapsed":492947,"internal_node_id":"0.0-147.0","participant_id":"A234UW0G9PMSCC"},{"rt":1792,"stimulus":"stimuli/56.jpg","button_pressed":"0","name":"emotionType","trial_type":"image-button-response","trial_index":148,"time_elapsed":494744,"internal_node_id":"0.0-148.0","participant_id":"A234UW0G9PMSCC"},{"rt":null,"stimulus":"<p style=\"font-size: 48px;\">+</p>","key_press":null,"Name":"fixation","trial_type":"html-keyboard-response","trial_index":149,"time_elapsed":495751,"internal_node_id":"0.0-149.0","participant_id":"A234UW0G9PMSCC"},{"rt":null,"stimulus":"stimuli/38.jpg","button_pressed":null,"name":"noRating","trial_type":"image-button-response","trial_index":150,"time_elapsed":500756,"internal_node_id":"0.0-150.0","participant_id":"A234UW0G9PMSCC"},{"rt":1143,"stimulus":"stimuli/38.jpg","button_pressed":"0","name":"valence","trial_type":"image-button-response","trial_index":151,"time_elapsed":501902,"internal_node_id":"0.0-151.0","participant_id":"A234UW0G9PMSCC"},{"rt":3988,"response":"59","name":"rating","trial_type":"image-slider-response","trial_index":152,"time_elapsed":505896,"internal_node_id":"0.0-152.0","participant_id":"A234UW0G9PMSCC"},{"rt":1553,"stimulus":"stimuli/38.jpg","button_pressed":"0","name":"emotionType","trial_type":"image-button-response","trial_index":153,"time_elapsed":507454,"internal_node_id":"0.0-153.0","participant_id":"A234UW0G9PMSCC"},{"rt":null,"stimulus":"<p style=\"font-size: 48px;\">+</p>","key_press":null,"Name":"fixation","trial_type":"html-keyboard-response","trial_index":154,"time_elapsed":507965,"internal_node_id":"0.0-154.0","participant_id":"A234UW0G9PMSCC"},{"rt":null,"stimulus":"stimuli/41.jpg","button_pressed":null,"name":"noRating","trial_type":"image-button-response","trial_index":155,"time_elapsed":512980,"internal_node_id":"0.0-155.0","participant_id":"A234UW0G9PMSCC"},{"rt":1158,"stimulus":"stimuli/41.jpg","button_pressed":"0","name":"valence","trial_type":"image-button-response","trial_index":156,"time_elapsed":514142,"internal_node_id":"0.0-156.0","participant_id":"A234UW0G9PMSCC"},{"rt":3684,"response":"61","name":"rating","trial_type":"image-slider-response","trial_index":157,"time_elapsed":517829,"internal_node_id":"0.0-157.0","participant_id":"A234UW0G9PMSCC"},{"rt":1824,"stimulus":"stimuli/41.jpg","button_pressed":"1","name":"emotionType","trial_type":"image-button-response","trial_index":158,"time_elapsed":519659,"internal_node_id":"0.0-158.0","participant_id":"A234UW0G9PMSCC"},{"rt":null,"stimulus":"<p style=\"font-size: 48px;\">+</p>","key_press":null,"Name":"fixation","trial_type":"html-keyboard-response","trial_index":159,"time_elapsed":521201,"internal_node_id":"0.0-159.0","participant_id":"A234UW0G9PMSCC"},{"rt":null,"stimulus":"stimuli/14.jpg","button_pressed":null,"name":"noRating","trial_type":"image-button-response","trial_index":160,"time_elapsed":526375,"internal_node_id":"0.0-160.0","participant_id":"A234UW0G9PMSCC"},{"rt":2706,"stimulus":"stimuli/14.jpg","button_pressed":"0","name":"valence","trial_type":"image-button-response","trial_index":161,"time_elapsed":529085,"internal_node_id":"0.0-161.0","participant_id":"A234UW0G9PMSCC"},{"rt":4216,"response":"59","name":"rating","trial_type":"image-slider-response","trial_index":162,"time_elapsed":533306,"internal_node_id":"0.0-162.0","participant_id":"A234UW0G9PMSCC"},{"rt":1432,"stimulus":"stimuli/14.jpg","button_pressed":"0","name":"emotionType","trial_type":"image-button-response","trial_index":163,"time_elapsed":534741,"internal_node_id":"0.0-163.0","participant_id":"A234UW0G9PMSCC"},{"rt":3454,"stimulus":"stimuli/ins/Slide8.JPG","button_pressed":"0","trial_type":"image-button-response","trial_index":164,"time_elapsed":538199,"internal_node_id":"0.0-164.0","participant_id":"A234UW0G9PMSCC"}]