[{"rt":5877,"responses":"{\"Q0\":\"A2G7DTL156PTKA\"}","trial_type":"survey-text","trial_index":0,"time_elapsed":5882,"internal_node_id":"0.0-0.0-0.0","participant_id":"A2G7DTL156PTKA"},{"rt":3366,"stimulus":"stimuli/ins/Slide1.JPG","button_pressed":"0","Name":"instructions","trial_type":"image-button-response","trial_index":1,"time_elapsed":9255,"internal_node_id":"0.0-1.0","participant_id":"A2G7DTL156PTKA"},{"rt":2318,"stimulus":"stimuli/ins/Slide2.JPG","button_pressed":"0","Name":"instructions","trial_type":"image-button-response","trial_index":2,"time_elapsed":11576,"internal_node_id":"0.0-2.0","participant_id":"A2G7DTL156PTKA"},{"rt":3255,"stimulus":"stimuli/ins/Slide3.JPG","button_pressed":"0","Name":"instructions","trial_type":"image-button-response","trial_index":3,"time_elapsed":14833,"internal_node_id":"0.0-3.0","participant_id":"A2G7DTL156PTKA"},{"rt":2552,"stimulus":"stimuli/ins/Slide4.JPG","button_pressed":"0","Name":"instructions","trial_type":"image-button-response","trial_index":4,"time_elapsed":17387,"internal_node_id":"0.0-4.0","participant_id":"A2G7DTL156PTKA"},{"rt":1249,"stimulus":"stimuli/ins/Slide5.JPG","button_pressed":"0","Name":"instructions","trial_type":"image-button-response","trial_index":5,"time_elapsed":18638,"internal_node_id":"0.0-5.0","participant_id":"A2G7DTL156PTKA"},{"rt":1563,"stimulus":"stimuli/ins/Slide6.JPG","button_pressed":"0","Name":"instructions","trial_type":"image-button-response","trial_index":6,"time_elapsed":20204,"internal_node_id":"0.0-6.0","participant_id":"A2G7DTL156PTKA"},{"rt":705,"stimulus":"stimuli/ins/Slide7.JPG","button_pressed":"0","Name":"instructions","trial_type":"image-button-response","trial_index":7,"time_elapsed":20912,"internal_node_id":"0.0-7.0","participant_id":"A2G7DTL156PTKA"},{"rt":3953,"responses":"{\"Q0\":\"but\"}","trial_type":"survey-text","trial_index":8,"time_elapsed":24867,"internal_node_id":"0.0-8.0-0.0","participant_id":"A2G7DTL156PTKA"},{"rt":null,"stimulus":"<p style=\"font-size: 48px;\">+</p>","key_press":null,"Name":"fixation","trial_type":"html-keyboard-response","trial_index":9,"time_elapsed":25869,"internal_node_id":"0.0-9.0","participant_id":"A2G7DTL156PTKA"},{"rt":null,"stimulus":"stimuli/45.jpg","button_pressed":null,"name":"noRating","trial_type":"image-button-response","trial_index":10,"time_elapsed":30871,"internal_node_id":"0.0-10.0","participant_id":"A2G7DTL156PTKA"},{"rt":1684,"stimulus":"stimuli/45.jpg","button_pressed":"0","name":"valence","trial_type":"image-button-response","trial_index":11,"time_elapsed":32558,"internal_node_id":"0.0-11.0","participant_id":"A2G7DTL156PTKA"},{"rt":10826,"response":"77","name":"rating","trial_type":"image-slider-response","trial_index":12,"time_elapsed":43389,"internal_node_id":"0.0-12.0","participant_id":"A2G7DTL156PTKA"},{"rt":4277,"stimulus":"stimuli/45.jpg","button_pressed":"0","name":"emotionType","trial_type":"image-button-response","trial_index":13,"time_elapsed":47670,"internal_node_id":"0.0-13.0","participant_id":"A2G7DTL156PTKA"},{"rt":null,"stimulus":"<p style=\"font-size: 48px;\">+</p>","key_press":null,"Name":"fixation","trial_type":"html-keyboard-response","trial_index":14,"time_elapsed":48673,"internal_node_id":"0.0-14.0","participant_id":"A2G7DTL156PTKA"},{"rt":null,"stimulus":"stimuli/21.jpg","button_pressed":null,"name":"noRating","trial_type":"image-button-response","trial_index":15,"time_elapsed":53675,"internal_node_id":"0.0-15.0","participant_id":"A2G7DTL156PTKA"},{"rt":1614,"stimulus":"stimuli/21.jpg","button_pressed":"0","name":"valence","trial_type":"image-button-response","trial_index":16,"time_elapsed":55291,"internal_node_id":"0.0-16.0","participant_id":"A2G7DTL156PTKA"},{"rt":2778,"response":"59","name":"rating","trial_type":"image-slider-response","trial_index":17,"time_elapsed":58072,"internal_node_id":"0.0-17.0","participant_id":"A2G7DTL156PTKA"},{"rt":3689,"stimulus":"stimuli/21.jpg","button_pressed":"0","name":"emotionType","trial_type":"image-button-response","trial_index":18,"time_elapsed":61763,"internal_node_id":"0.0-18.0","participant_id":"A2G7DTL156PTKA"},{"rt":null,"stimulus":"<p style=\"font-size: 48px;\">+</p>","key_press":null,"Name":"fixation","trial_type":"html-keyboard-response","trial_index":19,"time_elapsed":62765,"internal_node_id":"0.0-19.0","participant_id":"A2G7DTL156PTKA"},{"rt":null,"stimulus":"stimuli/70.jpg","button_pressed":null,"name":"noRating","trial_type":"image-button-response","trial_index":20,"time_elapsed":67766,"internal_node_id":"0.0-20.0","participant_id":"A2G7DTL156PTKA"},{"rt":1111,"stimulus":"stimuli/70.jpg","button_pressed":"0","name":"valence","trial_type":"image-button-response","trial_index":21,"time_elapsed":68878,"internal_node_id":"0.0-21.0","participant_id":"A2G7DTL156PTKA"},{"rt":3496,"response":"67","name":"rating","trial_type":"image-slider-response","trial_index":22,"time_elapsed":72377,"internal_node_id":"0.0-22.0","participant_id":"A2G7DTL156PTKA"},{"rt":938,"stimulus":"stimuli/70.jpg","button_pressed":"0","name":"emotionType","trial_type":"image-button-response","trial_index":23,"time_elapsed":73317,"internal_node_id":"0.0-23.0","participant_id":"A2G7DTL156PTKA"},{"rt":null,"stimulus":"<p style=\"font-size: 48px;\">+</p>","key_press":null,"Name":"fixation","trial_type":"html-keyboard-response","trial_index":24,"time_elapsed":73819,"internal_node_id":"0.0-24.0","participant_id":"A2G7DTL156PTKA"},{"rt":null,"stimulus":"stimuli/37.jpg","button_pressed":null,"name":"noRating","trial_type":"image-button-response","trial_index":25,"time_elapsed":78823,"internal_node_id":"0.0-25.0","participant_id":"A2G7DTL156PTKA"},{"rt":5238,"stimulus":"stimuli/37.jpg","button_pressed":"2","name":"valence","trial_type":"image-button-response","trial_index":26,"time_elapsed":84062,"internal_node_id":"0.0-26.0","participant_id":"A2G7DTL156PTKA"},{"rt":3040,"response":"0","name":"rating","trial_type":"image-slider-response","trial_index":27,"time_elapsed":87105,"internal_node_id":"0.0-27.0","participant_id":"A2G7DTL156PTKA"},{"rt":3505,"stimulus":"stimuli/37.jpg","button_pressed":"2","name":"emotionType","trial_type":"image-button-response","trial_index":28,"time_elapsed":93477,"internal_node_id":"0.0-28.0","participant_id":"A2G7DTL156PTKA"},{"rt":null,"stimulus":"<p style=\"font-size: 48px;\">+</p>","key_press":null,"Name":"fixation","trial_type":"html-keyboard-response","trial_index":29,"time_elapsed":94979,"internal_node_id":"0.0-29.0","participant_id":"A2G7DTL156PTKA"},{"rt":null,"stimulus":"stimuli/65.jpg","button_pressed":null,"name":"noRating","trial_type":"image-button-response","trial_index":30,"time_elapsed":99980,"internal_node_id":"0.0-30.0","participant_id":"A2G7DTL156PTKA"},{"rt":1355,"stimulus":"stimuli/65.jpg","button_pressed":"0","name":"valence","trial_type":"image-button-response","trial_index":31,"time_elapsed":101337,"internal_node_id":"0.0-31.0","participant_id":"A2G7DTL156PTKA"},{"rt":2999,"response":"14","name":"rating","trial_type":"image-slider-response","trial_index":32,"time_elapsed":104339,"internal_node_id":"0.0-32.0","participant_id":"A2G7DTL156PTKA"},{"rt":2535,"stimulus":"stimuli/65.jpg","button_pressed":"0","name":"emotionType","trial_type":"image-button-response","trial_index":33,"time_elapsed":106877,"internal_node_id":"0.0-33.0","participant_id":"A2G7DTL156PTKA"},{"rt":3543,"responses":"{\"Q0\":\"rock\"}","trial_type":"survey-text","trial_index":34,"time_elapsed":110423,"internal_node_id":"0.0-34.0-0.0","participant_id":"A2G7DTL156PTKA"},{"rt":null,"stimulus":"<p style=\"font-size: 48px;\">+</p>","key_press":null,"Name":"fixation","trial_type":"html-keyboard-response","trial_index":35,"time_elapsed":110926,"internal_node_id":"0.0-35.0","participant_id":"A2G7DTL156PTKA"},{"rt":null,"stimulus":"stimuli/32.jpg","button_pressed":null,"name":"noRating","trial_type":"image-button-response","trial_index":36,"time_elapsed":115928,"internal_node_id":"0.0-36.0","participant_id":"A2G7DTL156PTKA"},{"rt":4798,"stimulus":"stimuli/32.jpg","button_pressed":"0","name":"valence","trial_type":"image-button-response","trial_index":37,"time_elapsed":120729,"internal_node_id":"0.0-37.0","participant_id":"A2G7DTL156PTKA"},{"rt":3069,"response":"33","name":"rating","trial_type":"image-slider-response","trial_index":38,"time_elapsed":123802,"internal_node_id":"0.0-38.0","participant_id":"A2G7DTL156PTKA"},{"rt":1987,"stimulus":"stimuli/32.jpg","button_pressed":"0","name":"emotionType","trial_type":"image-button-response","trial_index":39,"time_elapsed":125791,"internal_node_id":"0.0-39.0","participant_id":"A2G7DTL156PTKA"},{"rt":null,"stimulus":"<p style=\"font-size: 48px;\">+</p>","key_press":null,"Name":"fixation","trial_type":"html-keyboard-response","trial_index":40,"time_elapsed":126293,"internal_node_id":"0.0-40.0","participant_id":"A2G7DTL156PTKA"},{"rt":null,"stimulus":"stimuli/20.jpg","button_pressed":null,"name":"noRating","trial_type":"image-button-response","trial_index":41,"time_elapsed":131295,"internal_node_id":"0.0-41.0","participant_id":"A2G7DTL156PTKA"},{"rt":1652,"stimulus":"stimuli/20.jpg","button_pressed":"0","name":"valence","trial_type":"image-button-response","trial_index":42,"time_elapsed":132949,"internal_node_id":"0.0-42.0","participant_id":"A2G7DTL156PTKA"},{"rt":3121,"response":"49","name":"rating","trial_type":"image-slider-response","trial_index":43,"time_elapsed":136073,"internal_node_id":"0.0-43.0","participant_id":"A2G7DTL156PTKA"},{"rt":1063,"stimulus":"stimuli/20.jpg","button_pressed":"0","name":"emotionType","trial_type":"image-button-response","trial_index":44,"time_elapsed":137139,"internal_node_id":"0.0-44.0","participant_id":"A2G7DTL156PTKA"},{"rt":null,"stimulus":"<p style=\"font-size: 48px;\">+</p>","key_press":null,"Name":"fixation","trial_type":"html-keyboard-response","trial_index":45,"time_elapsed":137642,"internal_node_id":"0.0-45.0","participant_id":"A2G7DTL156PTKA"},{"rt":null,"stimulus":"stimuli/64.jpg","button_pressed":null,"name":"noRating","trial_type":"image-button-response","trial_index":46,"time_elapsed":142645,"internal_node_id":"0.0-46.0","participant_id":"A2G7DTL156PTKA"},{"rt":2864,"stimulus":"stimuli/64.jpg","button_pressed":"2","name":"valence","trial_type":"image-button-response","trial_index":47,"time_elapsed":145511,"internal_node_id":"0.0-47.0","participant_id":"A2G7DTL156PTKA"},{"rt":4064,"response":"1","name":"rating","trial_type":"image-slider-response","trial_index":48,"time_elapsed":149577,"internal_node_id":"0.0-48.0","participant_id":"A2G7DTL156PTKA"},{"rt":2543,"stimulus":"stimuli/64.jpg","button_pressed":"2","name":"emotionType","trial_type":"image-button-response","trial_index":49,"time_elapsed":152124,"internal_node_id":"0.0-49.0","participant_id":"A2G7DTL156PTKA"},{"rt":null,"stimulus":"<p style=\"font-size: 48px;\">+</p>","key_press":null,"Name":"fixation","trial_type":"html-keyboard-response","trial_index":50,"time_elapsed":153126,"internal_node_id":"0.0-50.0","participant_id":"A2G7DTL156PTKA"},{"rt":null,"stimulus":"stimuli/49.jpg","button_pressed":null,"name":"noRating","trial_type":"image-button-response","trial_index":51,"time_elapsed":158129,"internal_node_id":"0.0-51.0","participant_id":"A2G7DTL156PTKA"},{"rt":1398,"stimulus":"stimuli/49.jpg","button_pressed":"0","name":"valence","trial_type":"image-button-response","trial_index":52,"time_elapsed":159529,"internal_node_id":"0.0-52.0","participant_id":"A2G7DTL156PTKA"},{"rt":3299,"response":"50","name":"rating","trial_type":"image-slider-response","trial_index":53,"time_elapsed":162831,"internal_node_id":"0.0-53.0","participant_id":"A2G7DTL156PTKA"},{"rt":1051,"stimulus":"stimuli/49.jpg","button_pressed":"0","name":"emotionType","trial_type":"image-button-response","trial_index":54,"time_elapsed":163885,"internal_node_id":"0.0-54.0","participant_id":"A2G7DTL156PTKA"},{"rt":null,"stimulus":"<p style=\"font-size: 48px;\">+</p>","key_press":null,"Name":"fixation","trial_type":"html-keyboard-response","trial_index":55,"time_elapsed":164387,"internal_node_id":"0.0-55.0","participant_id":"A2G7DTL156PTKA"},{"rt":null,"stimulus":"stimuli/1.jpg","button_pressed":null,"name":"noRating","trial_type":"image-button-response","trial_index":56,"time_elapsed":169391,"internal_node_id":"0.0-56.0","participant_id":"A2G7DTL156PTKA"},{"rt":940,"stimulus":"stimuli/1.jpg","button_pressed":"0","name":"valence","trial_type":"image-button-response","trial_index":57,"time_elapsed":170333,"internal_node_id":"0.0-57.0","participant_id":"A2G7DTL156PTKA"},{"rt":4343,"response":"32","name":"rating","trial_type":"image-slider-response","trial_index":58,"time_elapsed":174679,"internal_node_id":"0.0-58.0","participant_id":"A2G7DTL156PTKA"},{"rt":1254,"stimulus":"stimuli/1.jpg","button_pressed":"0","name":"emotionType","trial_type":"image-button-response","trial_index":59,"time_elapsed":175935,"internal_node_id":"0.0-59.0","participant_id":"A2G7DTL156PTKA"},{"rt":3754,"responses":"{\"Q0\":\"sky\"}","trial_type":"survey-text","trial_index":60,"time_elapsed":179690,"internal_node_id":"0.0-60.0-0.0","participant_id":"A2G7DTL156PTKA"},{"rt":null,"stimulus":"<p style=\"font-size: 48px;\">+</p>","key_press":null,"Name":"fixation","trial_type":"html-keyboard-response","trial_index":61,"time_elapsed":181193,"internal_node_id":"0.0-61.0","participant_id":"A2G7DTL156PTKA"},{"rt":null,"stimulus":"stimuli/15.jpg","button_pressed":null,"name":"noRating","trial_type":"image-button-response","trial_index":62,"time_elapsed":186197,"internal_node_id":"0.0-62.0","participant_id":"A2G7DTL156PTKA"},{"rt":1972,"stimulus":"stimuli/15.jpg","button_pressed":"2","name":"valence","trial_type":"image-button-response","trial_index":63,"time_elapsed":188171,"internal_node_id":"0.0-63.0","participant_id":"A2G7DTL156PTKA"},{"rt":4125,"response":"15","name":"rating","trial_type":"image-slider-response","trial_index":64,"time_elapsed":192299,"internal_node_id":"0.0-64.0","participant_id":"A2G7DTL156PTKA"},{"rt":71650,"stimulus":"stimuli/15.jpg","button_pressed":"2","name":"emotionType","trial_type":"image-button-response","trial_index":65,"time_elapsed":263952,"internal_node_id":"0.0-65.0","participant_id":"A2G7DTL156PTKA"},{"rt":null,"stimulus":"<p style=\"font-size: 48px;\">+</p>","key_press":null,"Name":"fixation","trial_type":"html-keyboard-response","trial_index":66,"time_elapsed":264454,"internal_node_id":"0.0-66.0","participant_id":"A2G7DTL156PTKA"},{"rt":null,"stimulus":"stimuli/50.jpg","button_pressed":null,"name":"noRating","trial_type":"image-button-response","trial_index":67,"time_elapsed":269457,"internal_node_id":"0.0-67.0","participant_id":"A2G7DTL156PTKA"},{"rt":1778,"stimulus":"stimuli/50.jpg","button_pressed":"2","name":"valence","trial_type":"image-button-response","trial_index":68,"time_elapsed":271240,"internal_node_id":"0.0-68.0","participant_id":"A2G7DTL156PTKA"},{"rt":2639,"response":"17","name":"rating","trial_type":"image-slider-response","trial_index":69,"time_elapsed":273881,"internal_node_id":"0.0-69.0","participant_id":"A2G7DTL156PTKA"},{"rt":2602,"stimulus":"stimuli/50.jpg","button_pressed":"2","name":"emotionType","trial_type":"image-button-response","trial_index":70,"time_elapsed":276486,"internal_node_id":"0.0-70.0","participant_id":"A2G7DTL156PTKA"},{"rt":null,"stimulus":"<p style=\"font-size: 48px;\">+</p>","key_press":null,"Name":"fixation","trial_type":"html-keyboard-response","trial_index":71,"time_elapsed":276988,"internal_node_id":"0.0-71.0","participant_id":"A2G7DTL156PTKA"},{"rt":null,"stimulus":"stimuli/10.jpg","button_pressed":null,"name":"noRating","trial_type":"image-button-response","trial_index":72,"time_elapsed":281990,"internal_node_id":"0.0-72.0","participant_id":"A2G7DTL156PTKA"},{"rt":2958,"stimulus":"stimuli/10.jpg","button_pressed":"2","name":"valence","trial_type":"image-button-response","trial_index":73,"time_elapsed":284950,"internal_node_id":"0.0-73.0","participant_id":"A2G7DTL156PTKA"},{"rt":3853,"response":"49","name":"rating","trial_type":"image-slider-response","trial_index":74,"time_elapsed":288806,"internal_node_id":"0.0-74.0","participant_id":"A2G7DTL156PTKA"},{"rt":2326,"stimulus":"stimuli/10.jpg","button_pressed":"2","name":"emotionType","trial_type":"image-button-response","trial_index":75,"time_elapsed":291134,"internal_node_id":"0.0-75.0","participant_id":"A2G7DTL156PTKA"},{"rt":null,"stimulus":"<p style=\"font-size: 48px;\">+</p>","key_press":null,"Name":"fixation","trial_type":"html-keyboard-response","trial_index":76,"time_elapsed":292636,"internal_node_id":"0.0-76.0","participant_id":"A2G7DTL156PTKA"},{"rt":null,"stimulus":"stimuli/48.jpg","button_pressed":null,"name":"noRating","trial_type":"image-button-response","trial_index":77,"time_elapsed":297638,"internal_node_id":"0.0-77.0","participant_id":"A2G7DTL156PTKA"},{"rt":2718,"stimulus":"stimuli/48.jpg","button_pressed":"0","name":"valence","trial_type":"image-button-response","trial_index":78,"time_elapsed":300358,"internal_node_id":"0.0-78.0","participant_id":"A2G7DTL156PTKA"},{"rt":2883,"response":"67","name":"rating","trial_type":"image-slider-response","trial_index":79,"time_elapsed":303243,"internal_node_id":"0.0-79.0","participant_id":"A2G7DTL156PTKA"},{"rt":883,"stimulus":"stimuli/48.jpg","button_pressed":"0","name":"emotionType","trial_type":"image-button-response","trial_index":80,"time_elapsed":304131,"internal_node_id":"0.0-80.0","participant_id":"A2G7DTL156PTKA"},{"rt":null,"stimulus":"<p style=\"font-size: 48px;\">+</p>","key_press":null,"Name":"fixation","trial_type":"html-keyboard-response","trial_index":81,"time_elapsed":305634,"internal_node_id":"0.0-81.0","participant_id":"A2G7DTL156PTKA"},{"rt":null,"stimulus":"stimuli/4.jpg","button_pressed":null,"name":"noRating","trial_type":"image-button-response","trial_index":82,"time_elapsed":310636,"internal_node_id":"0.0-82.0","participant_id":"A2G7DTL156PTKA"},{"rt":1220,"stimulus":"stimuli/4.jpg","button_pressed":"0","name":"valence","trial_type":"image-button-response","trial_index":83,"time_elapsed":311858,"internal_node_id":"0.0-83.0","participant_id":"A2G7DTL156PTKA"},{"rt":2473,"response":"37","name":"rating","trial_type":"image-slider-response","trial_index":84,"time_elapsed":314334,"internal_node_id":"0.0-84.0","participant_id":"A2G7DTL156PTKA"},{"rt":5018,"stimulus":"stimuli/4.jpg","button_pressed":"0","name":"emotionType","trial_type":"image-button-response","trial_index":85,"time_elapsed":319354,"internal_node_id":"0.0-85.0","participant_id":"A2G7DTL156PTKA"},{"rt":3614,"responses":"{\"Q0\":\"our\"}","trial_type":"survey-text","trial_index":86,"time_elapsed":322969,"internal_node_id":"0.0-86.0-0.0","participant_id":"A2G7DTL156PTKA"},{"rt":null,"stimulus":"<p style=\"font-size: 48px;\">+</p>","key_press":null,"Name":"fixation","trial_type":"html-keyboard-response","trial_index":87,"time_elapsed":324472,"internal_node_id":"0.0-87.0","participant_id":"A2G7DTL156PTKA"},{"rt":null,"stimulus":"stimuli/47.jpg","button_pressed":null,"name":"noRating","trial_type":"image-button-response","trial_index":88,"time_elapsed":329475,"internal_node_id":"0.0-88.0","participant_id":"A2G7DTL156PTKA"},{"rt":6123,"stimulus":"stimuli/47.jpg","button_pressed":"0","name":"valence","trial_type":"image-button-response","trial_index":89,"time_elapsed":335600,"internal_node_id":"0.0-89.0","participant_id":"A2G7DTL156PTKA"},{"rt":2702,"response":"66","name":"rating","trial_type":"image-slider-response","trial_index":90,"time_elapsed":338305,"internal_node_id":"0.0-90.0","participant_id":"A2G7DTL156PTKA"},{"rt":1093,"stimulus":"stimuli/47.jpg","button_pressed":"0","name":"emotionType","trial_type":"image-button-response","trial_index":91,"time_elapsed":339400,"internal_node_id":"0.0-91.0","participant_id":"A2G7DTL156PTKA"},{"rt":null,"stimulus":"<p style=\"font-size: 48px;\">+</p>","key_press":null,"Name":"fixation","trial_type":"html-keyboard-response","trial_index":92,"time_elapsed":340403,"internal_node_id":"0.0-92.0","participant_id":"A2G7DTL156PTKA"},{"rt":null,"stimulus":"stimuli/58.jpg","button_pressed":null,"name":"noRating","trial_type":"image-button-response","trial_index":93,"time_elapsed":345700,"internal_node_id":"0.0-93.0","participant_id":"A2G7DTL156PTKA"},{"rt":1838,"stimulus":"stimuli/58.jpg","button_pressed":"2","name":"valence","trial_type":"image-button-response","trial_index":94,"time_elapsed":347540,"internal_node_id":"0.0-94.0","participant_id":"A2G7DTL156PTKA"},{"rt":2681,"response":"18","name":"rating","trial_type":"image-slider-response","trial_index":95,"time_elapsed":350223,"internal_node_id":"0.0-95.0","participant_id":"A2G7DTL156PTKA"},{"rt":2086,"stimulus":"stimuli/58.jpg","button_pressed":"2","name":"emotionType","trial_type":"image-button-response","trial_index":96,"time_elapsed":352311,"internal_node_id":"0.0-96.0","participant_id":"A2G7DTL156PTKA"},{"rt":null,"stimulus":"<p style=\"font-size: 48px;\">+</p>","key_press":null,"Name":"fixation","trial_type":"html-keyboard-response","trial_index":97,"time_elapsed":353313,"internal_node_id":"0.0-97.0","participant_id":"A2G7DTL156PTKA"},{"rt":null,"stimulus":"stimuli/26.jpg","button_pressed":null,"name":"noRating","trial_type":"image-button-response","trial_index":98,"time_elapsed":358315,"internal_node_id":"0.0-98.0","participant_id":"A2G7DTL156PTKA"},{"rt":2105,"stimulus":"stimuli/26.jpg","button_pressed":"0","name":"valence","trial_type":"image-button-response","trial_index":99,"time_elapsed":360422,"internal_node_id":"0.0-99.0","participant_id":"A2G7DTL156PTKA"},{"rt":2853,"response":"49","name":"rating","trial_type":"image-slider-response","trial_index":100,"time_elapsed":363277,"internal_node_id":"0.0-100.0","participant_id":"A2G7DTL156PTKA"},{"rt":1164,"stimulus":"stimuli/26.jpg","button_pressed":"0","name":"emotionType","trial_type":"image-button-response","trial_index":101,"time_elapsed":364443,"internal_node_id":"0.0-101.0","participant_id":"A2G7DTL156PTKA"},{"rt":null,"stimulus":"<p style=\"font-size: 48px;\">+</p>","key_press":null,"Name":"fixation","trial_type":"html-keyboard-response","trial_index":102,"time_elapsed":364946,"internal_node_id":"0.0-102.0","participant_id":"A2G7DTL156PTKA"},{"rt":null,"stimulus":"stimuli/46.jpg","button_pressed":null,"name":"noRating","trial_type":"image-button-response","trial_index":103,"time_elapsed":369948,"internal_node_id":"0.0-103.0","participant_id":"A2G7DTL156PTKA"},{"rt":1182,"stimulus":"stimuli/46.jpg","button_pressed":"0","name":"valence","trial_type":"image-button-response","trial_index":104,"time_elapsed":371132,"internal_node_id":"0.0-104.0","participant_id":"A2G7DTL156PTKA"},{"rt":3540,"response":"59","name":"rating","trial_type":"image-slider-response","trial_index":105,"time_elapsed":374675,"internal_node_id":"0.0-105.0","participant_id":"A2G7DTL156PTKA"},{"rt":1131,"stimulus":"stimuli/46.jpg","button_pressed":"0","name":"emotionType","trial_type":"image-button-response","trial_index":106,"time_elapsed":375809,"internal_node_id":"0.0-106.0","participant_id":"A2G7DTL156PTKA"},{"rt":null,"stimulus":"<p style=\"font-size: 48px;\">+</p>","key_press":null,"Name":"fixation","trial_type":"html-keyboard-response","trial_index":107,"time_elapsed":376811,"internal_node_id":"0.0-107.0","participant_id":"A2G7DTL156PTKA"},{"rt":null,"stimulus":"stimuli/39.jpg","button_pressed":null,"name":"noRating","trial_type":"image-button-response","trial_index":108,"time_elapsed":381814,"internal_node_id":"0.0-108.0","participant_id":"A2G7DTL156PTKA"},{"rt":1028,"stimulus":"stimuli/39.jpg","button_pressed":"0","name":"valence","trial_type":"image-button-response","trial_index":109,"time_elapsed":382845,"internal_node_id":"0.0-109.0","participant_id":"A2G7DTL156PTKA"},{"rt":3286,"response":"33","name":"rating","trial_type":"image-slider-response","trial_index":110,"time_elapsed":386134,"internal_node_id":"0.0-110.0","participant_id":"A2G7DTL156PTKA"},{"rt":1541,"stimulus":"stimuli/39.jpg","button_pressed":"0","name":"emotionType","trial_type":"image-button-response","trial_index":111,"time_elapsed":387678,"internal_node_id":"0.0-111.0","participant_id":"A2G7DTL156PTKA"},{"rt":3461,"responses":"{\"Q0\":\"course\"}","trial_type":"survey-text","trial_index":112,"time_elapsed":391141,"internal_node_id":"0.0-112.0-0.0","participant_id":"A2G7DTL156PTKA"},{"rt":null,"stimulus":"<p style=\"font-size: 48px;\">+</p>","key_press":null,"Name":"fixation","trial_type":"html-keyboard-response","trial_index":113,"time_elapsed":392145,"internal_node_id":"0.0-113.0","participant_id":"A2G7DTL156PTKA"},{"rt":null,"stimulus":"stimuli/55.jpg","button_pressed":null,"name":"noRating","trial_type":"image-button-response","trial_index":114,"time_elapsed":397148,"internal_node_id":"0.0-114.0","participant_id":"A2G7DTL156PTKA"},{"rt":1927,"stimulus":"stimuli/55.jpg","button_pressed":"0","name":"valence","trial_type":"image-button-response","trial_index":115,"time_elapsed":399077,"internal_node_id":"0.0-115.0","participant_id":"A2G7DTL156PTKA"},{"rt":2891,"response":"67","name":"rating","trial_type":"image-slider-response","trial_index":116,"time_elapsed":401971,"internal_node_id":"0.0-116.0","participant_id":"A2G7DTL156PTKA"},{"rt":1632,"stimulus":"stimuli/55.jpg","button_pressed":"0","name":"emotionType","trial_type":"image-button-response","trial_index":117,"time_elapsed":403609,"internal_node_id":"0.0-117.0","participant_id":"A2G7DTL156PTKA"},{"rt":null,"stimulus":"<p style=\"font-size: 48px;\">+</p>","key_press":null,"Name":"fixation","trial_type":"html-keyboard-response","trial_index":118,"time_elapsed":404111,"internal_node_id":"0.0-118.0","participant_id":"A2G7DTL156PTKA"},{"rt":null,"stimulus":"stimuli/7.jpg","button_pressed":null,"name":"noRating","trial_type":"image-button-response","trial_index":119,"time_elapsed":409114,"internal_node_id":"0.0-119.0","participant_id":"A2G7DTL156PTKA"},{"rt":1614,"stimulus":"stimuli/7.jpg","button_pressed":"2","name":"valence","trial_type":"image-button-response","trial_index":120,"time_elapsed":410730,"internal_node_id":"0.0-120.0","participant_id":"A2G7DTL156PTKA"},{"rt":2364,"response":"16","name":"rating","trial_type":"image-slider-response","trial_index":121,"time_elapsed":413097,"internal_node_id":"0.0-121.0","participant_id":"A2G7DTL156PTKA"},{"rt":1348,"stimulus":"stimuli/7.jpg","button_pressed":"2","name":"emotionType","trial_type":"image-button-response","trial_index":122,"time_elapsed":414447,"internal_node_id":"0.0-122.0","participant_id":"A2G7DTL156PTKA"},{"rt":null,"stimulus":"<p style=\"font-size: 48px;\">+</p>","key_press":null,"Name":"fixation","trial_type":"html-keyboard-response","trial_index":123,"time_elapsed":415451,"internal_node_id":"0.0-123.0","participant_id":"A2G7DTL156PTKA"},{"rt":null,"stimulus":"stimuli/5.jpg","button_pressed":null,"name":"noRating","trial_type":"image-button-response","trial_index":124,"time_elapsed":420452,"internal_node_id":"0.0-124.0","participant_id":"A2G7DTL156PTKA"},{"rt":5393,"stimulus":"stimuli/5.jpg","button_pressed":"0","name":"valence","trial_type":"image-button-response","trial_index":125,"time_elapsed":425847,"internal_node_id":"0.0-125.0","participant_id":"A2G7DTL156PTKA"},{"rt":3171,"response":"42","name":"rating","trial_type":"image-slider-response","trial_index":126,"time_elapsed":429021,"internal_node_id":"0.0-126.0","participant_id":"A2G7DTL156PTKA"},{"rt":841,"stimulus":"stimuli/5.jpg","button_pressed":"0","name":"emotionType","trial_type":"image-button-response","trial_index":127,"time_elapsed":429865,"internal_node_id":"0.0-127.0","participant_id":"A2G7DTL156PTKA"},{"rt":null,"stimulus":"<p style=\"font-size: 48px;\">+</p>","key_press":null,"Name":"fixation","trial_type":"html-keyboard-response","trial_index":128,"time_elapsed":430366,"internal_node_id":"0.0-128.0","participant_id":"A2G7DTL156PTKA"},{"rt":null,"stimulus":"stimuli/43.jpg","button_pressed":null,"name":"noRating","trial_type":"image-button-response","trial_index":129,"time_elapsed":435368,"internal_node_id":"0.0-129.0","participant_id":"A2G7DTL156PTKA"},{"rt":2791,"stimulus":"stimuli/43.jpg","button_pressed":"2","name":"valence","trial_type":"image-button-response","trial_index":130,"time_elapsed":438161,"internal_node_id":"0.0-130.0","participant_id":"A2G7DTL156PTKA"},{"rt":2527,"response":"11","name":"rating","trial_type":"image-slider-response","trial_index":131,"time_elapsed":440691,"internal_node_id":"0.0-131.0","participant_id":"A2G7DTL156PTKA"},{"rt":1564,"stimulus":"stimuli/43.jpg","button_pressed":"2","name":"emotionType","trial_type":"image-button-response","trial_index":132,"time_elapsed":442257,"internal_node_id":"0.0-132.0","participant_id":"A2G7DTL156PTKA"},{"rt":null,"stimulus":"<p style=\"font-size: 48px;\">+</p>","key_press":null,"Name":"fixation","trial_type":"html-keyboard-response","trial_index":133,"time_elapsed":442760,"internal_node_id":"0.0-133.0","participant_id":"A2G7DTL156PTKA"},{"rt":null,"stimulus":"stimuli/53.jpg","button_pressed":null,"name":"noRating","trial_type":"image-button-response","trial_index":134,"time_elapsed":447761,"internal_node_id":"0.0-134.0","participant_id":"A2G7DTL156PTKA"},{"rt":5679,"stimulus":"stimuli/53.jpg","button_pressed":"0","name":"valence","trial_type":"image-button-response","trial_index":135,"time_elapsed":453443,"internal_node_id":"0.0-135.0","participant_id":"A2G7DTL156PTKA"},{"rt":2316,"response":"16","name":"rating","trial_type":"image-slider-response","trial_index":136,"time_elapsed":455762,"internal_node_id":"0.0-136.0","participant_id":"A2G7DTL156PTKA"},{"rt":1032,"stimulus":"stimuli/53.jpg","button_pressed":"0","name":"emotionType","trial_type":"image-button-response","trial_index":137,"time_elapsed":456795,"internal_node_id":"0.0-137.0","participant_id":"A2G7DTL156PTKA"},{"rt":3675,"responses":"{\"Q0\":\"we\"}","trial_type":"survey-text","trial_index":138,"time_elapsed":460472,"internal_node_id":"0.0-138.0-0.0","participant_id":"A2G7DTL156PTKA"},{"rt":null,"stimulus":"<p style=\"font-size: 48px;\">+</p>","key_press":null,"Name":"fixation","trial_type":"html-keyboard-response","trial_index":139,"time_elapsed":461974,"internal_node_id":"0.0-139.0","participant_id":"A2G7DTL156PTKA"},{"rt":null,"stimulus":"stimuli/29.jpg","button_pressed":null,"name":"noRating","trial_type":"image-button-response","trial_index":140,"time_elapsed":466977,"internal_node_id":"0.0-140.0","participant_id":"A2G7DTL156PTKA"},{"rt":1178,"stimulus":"stimuli/29.jpg","button_pressed":"0","name":"valence","trial_type":"image-button-response","trial_index":141,"time_elapsed":468157,"internal_node_id":"0.0-141.0","participant_id":"A2G7DTL156PTKA"},{"rt":2867,"response":"47","name":"rating","trial_type":"image-slider-response","trial_index":142,"time_elapsed":471026,"internal_node_id":"0.0-142.0","participant_id":"A2G7DTL156PTKA"},{"rt":1582,"stimulus":"stimuli/29.jpg","button_pressed":"0","name":"emotionType","trial_type":"image-button-response","trial_index":143,"time_elapsed":472610,"internal_node_id":"0.0-143.0","participant_id":"A2G7DTL156PTKA"},{"rt":null,"stimulus":"<p style=\"font-size: 48px;\">+</p>","key_press":null,"Name":"fixation","trial_type":"html-keyboard-response","trial_index":144,"time_elapsed":473113,"internal_node_id":"0.0-144.0","participant_id":"A2G7DTL156PTKA"},{"rt":null,"stimulus":"stimuli/25.jpg","button_pressed":null,"name":"noRating","trial_type":"image-button-response","trial_index":145,"time_elapsed":478115,"internal_node_id":"0.0-145.0","participant_id":"A2G7DTL156PTKA"},{"rt":1252,"stimulus":"stimuli/25.jpg","button_pressed":"0","name":"valence","trial_type":"image-button-response","trial_index":146,"time_elapsed":479369,"internal_node_id":"0.0-146.0","participant_id":"A2G7DTL156PTKA"},{"rt":2721,"response":"66","name":"rating","trial_type":"image-slider-response","trial_index":147,"time_elapsed":482093,"internal_node_id":"0.0-147.0","participant_id":"A2G7DTL156PTKA"},{"rt":4048,"stimulus":"stimuli/25.jpg","button_pressed":"0","name":"emotionType","trial_type":"image-button-response","trial_index":148,"time_elapsed":486143,"internal_node_id":"0.0-148.0","participant_id":"A2G7DTL156PTKA"},{"rt":null,"stimulus":"<p style=\"font-size: 48px;\">+</p>","key_press":null,"Name":"fixation","trial_type":"html-keyboard-response","trial_index":149,"time_elapsed":487645,"internal_node_id":"0.0-149.0","participant_id":"A2G7DTL156PTKA"},{"rt":null,"stimulus":"stimuli/23.jpg","button_pressed":null,"name":"noRating","trial_type":"image-button-response","trial_index":150,"time_elapsed":492647,"internal_node_id":"0.0-150.0","participant_id":"A2G7DTL156PTKA"},{"rt":134090,"stimulus":"stimuli/23.jpg","button_pressed":"2","name":"valence","trial_type":"image-button-response","trial_index":151,"time_elapsed":626739,"internal_node_id":"0.0-151.0","participant_id":"A2G7DTL156PTKA"},{"rt":2825,"response":"17","name":"rating","trial_type":"image-slider-response","trial_index":152,"time_elapsed":629567,"internal_node_id":"0.0-152.0","participant_id":"A2G7DTL156PTKA"},{"rt":2268,"stimulus":"stimuli/23.jpg","button_pressed":"2","name":"emotionType","trial_type":"image-button-response","trial_index":153,"time_elapsed":631838,"internal_node_id":"0.0-153.0","participant_id":"A2G7DTL156PTKA"},{"rt":null,"stimulus":"<p style=\"font-size: 48px;\">+</p>","key_press":null,"Name":"fixation","trial_type":"html-keyboard-response","trial_index":154,"time_elapsed":632341,"internal_node_id":"0.0-154.0","participant_id":"A2G7DTL156PTKA"},{"rt":null,"stimulus":"stimuli/52.jpg","button_pressed":null,"name":"noRating","trial_type":"image-button-response","trial_index":155,"time_elapsed":637343,"internal_node_id":"0.0-155.0","participant_id":"A2G7DTL156PTKA"},{"rt":27501,"stimulus":"stimuli/52.jpg","button_pressed":"0","name":"valence","trial_type":"image-button-response","trial_index":156,"time_elapsed":664847,"internal_node_id":"0.0-156.0","participant_id":"A2G7DTL156PTKA"},{"rt":3237,"response":"49","name":"rating","trial_type":"image-slider-response","trial_index":157,"time_elapsed":668088,"internal_node_id":"0.0-157.0","participant_id":"A2G7DTL156PTKA"},{"rt":1395,"stimulus":"stimuli/52.jpg","button_pressed":"0","name":"emotionType","trial_type":"image-button-response","trial_index":158,"time_elapsed":669487,"internal_node_id":"0.0-158.0","participant_id":"A2G7DTL156PTKA"},{"rt":null,"stimulus":"<p style=\"font-size: 48px;\">+</p>","key_press":null,"Name":"fixation","trial_type":"html-keyboard-response","trial_index":159,"time_elapsed":670490,"internal_node_id":"0.0-159.0","participant_id":"A2G7DTL156PTKA"},{"rt":null,"stimulus":"stimuli/28.jpg","button_pressed":null,"name":"noRating","trial_type":"image-button-response","trial_index":160,"time_elapsed":676355,"internal_node_id":"0.0-160.0","participant_id":"A2G7DTL156PTKA"},{"rt":12884,"stimulus":"stimuli/28.jpg","button_pressed":"0","name":"valence","trial_type":"image-button-response","trial_index":161,"time_elapsed":689241,"internal_node_id":"0.0-161.0","participant_id":"A2G7DTL156PTKA"},{"rt":4047,"response":"33","name":"rating","trial_type":"image-slider-response","trial_index":162,"time_elapsed":693290,"internal_node_id":"0.0-162.0","participant_id":"A2G7DTL156PTKA"},{"rt":4554,"stimulus":"stimuli/28.jpg","button_pressed":"0","name":"emotionType","trial_type":"image-button-response","trial_index":163,"time_elapsed":697847,"internal_node_id":"0.0-163.0","participant_id":"A2G7DTL156PTKA"},{"rt":1882,"stimulus":"stimuli/ins/Slide8.JPG","button_pressed":"0","trial_type":"image-button-response","trial_index":164,"time_elapsed":699730,"internal_node_id":"0.0-164.0","participant_id":"A2G7DTL156PTKA"}]