[{"rt":2496,"responses":"{\"Q0\":\"A2JFRMQ3M0YZT2\"}","trial_type":"survey-text","trial_index":0,"time_elapsed":2498,"internal_node_id":"0.0-0.0-0.0","participant_id":"A2JFRMQ3M0YZT2"},{"rt":2906,"stimulus":"stimuli/ins/Slide1.JPG","button_pressed":"0","Name":"instructions","trial_type":"image-button-response","trial_index":1,"time_elapsed":5407,"internal_node_id":"0.0-1.0","participant_id":"A2JFRMQ3M0YZT2"},{"rt":2343,"stimulus":"stimuli/ins/Slide2.JPG","button_pressed":"0","Name":"instructions","trial_type":"image-button-response","trial_index":2,"time_elapsed":7751,"internal_node_id":"0.0-2.0","participant_id":"A2JFRMQ3M0YZT2"},{"rt":2575,"stimulus":"stimuli/ins/Slide3.JPG","button_pressed":"0","Name":"instructions","trial_type":"image-button-response","trial_index":3,"time_elapsed":10327,"internal_node_id":"0.0-3.0","participant_id":"A2JFRMQ3M0YZT2"},{"rt":2279,"stimulus":"stimuli/ins/Slide4.JPG","button_pressed":"0","Name":"instructions","trial_type":"image-button-response","trial_index":4,"time_elapsed":12606,"internal_node_id":"0.0-4.0","participant_id":"A2JFRMQ3M0YZT2"},{"rt":1928,"stimulus":"stimuli/ins/Slide5.JPG","button_pressed":"0","Name":"instructions","trial_type":"image-button-response","trial_index":5,"time_elapsed":14535,"internal_node_id":"0.0-5.0","participant_id":"A2JFRMQ3M0YZT2"},{"rt":1905,"stimulus":"stimuli/ins/Slide6.JPG","button_pressed":"0","Name":"instructions","trial_type":"image-button-response","trial_index":6,"time_elapsed":16442,"internal_node_id":"0.0-6.0","participant_id":"A2JFRMQ3M0YZT2"},{"rt":745,"stimulus":"stimuli/ins/Slide7.JPG","button_pressed":"0","Name":"instructions","trial_type":"image-button-response","trial_index":7,"time_elapsed":17187,"internal_node_id":"0.0-7.0","participant_id":"A2JFRMQ3M0YZT2"},{"rt":4175,"responses":"{\"Q0\":\"but\"}","trial_type":"survey-text","trial_index":8,"time_elapsed":21363,"internal_node_id":"0.0-8.0-0.0","participant_id":"A2JFRMQ3M0YZT2"},{"rt":null,"stimulus":"<p style=\"font-size: 48px;\">+</p>","key_press":null,"Name":"fixation","trial_type":"html-keyboard-response","trial_index":9,"time_elapsed":22865,"internal_node_id":"0.0-9.0","participant_id":"A2JFRMQ3M0YZT2"},{"rt":null,"stimulus":"stimuli/70.jpg","button_pressed":null,"name":"noRating","trial_type":"image-button-response","trial_index":10,"time_elapsed":27866,"internal_node_id":"0.0-10.0","participant_id":"A2JFRMQ3M0YZT2"},{"rt":1763,"stimulus":"stimuli/70.jpg","button_pressed":"2","name":"valence","trial_type":"image-button-response","trial_index":11,"time_elapsed":29630,"internal_node_id":"0.0-11.0","participant_id":"A2JFRMQ3M0YZT2"},{"rt":3071,"response":"0","name":"rating","trial_type":"image-slider-response","trial_index":12,"time_elapsed":32702,"internal_node_id":"0.0-12.0","participant_id":"A2JFRMQ3M0YZT2"},{"rt":4960,"stimulus":"stimuli/70.jpg","button_pressed":"2","name":"emotionType","trial_type":"image-button-response","trial_index":13,"time_elapsed":42955,"internal_node_id":"0.0-13.0","participant_id":"A2JFRMQ3M0YZT2"},{"rt":null,"stimulus":"<p style=\"font-size: 48px;\">+</p>","key_press":null,"Name":"fixation","trial_type":"html-keyboard-response","trial_index":14,"time_elapsed":43959,"internal_node_id":"0.0-14.0","participant_id":"A2JFRMQ3M0YZT2"},{"rt":null,"stimulus":"stimuli/50.jpg","button_pressed":null,"name":"noRating","trial_type":"image-button-response","trial_index":15,"time_elapsed":48960,"internal_node_id":"0.0-15.0","participant_id":"A2JFRMQ3M0YZT2"},{"rt":1099,"stimulus":"stimuli/50.jpg","button_pressed":"0","name":"valence","trial_type":"image-button-response","trial_index":16,"time_elapsed":50060,"internal_node_id":"0.0-16.0","participant_id":"A2JFRMQ3M0YZT2"},{"rt":2511,"response":"5","name":"rating","trial_type":"image-slider-response","trial_index":17,"time_elapsed":52572,"internal_node_id":"0.0-17.0","participant_id":"A2JFRMQ3M0YZT2"},{"rt":1989,"stimulus":"stimuli/50.jpg","button_pressed":"1","name":"emotionType","trial_type":"image-button-response","trial_index":18,"time_elapsed":54562,"internal_node_id":"0.0-18.0","participant_id":"A2JFRMQ3M0YZT2"},{"rt":null,"stimulus":"<p style=\"font-size: 48px;\">+</p>","key_press":null,"Name":"fixation","trial_type":"html-keyboard-response","trial_index":19,"time_elapsed":55064,"internal_node_id":"0.0-19.0","participant_id":"A2JFRMQ3M0YZT2"},{"rt":null,"stimulus":"stimuli/61.jpg","button_pressed":null,"name":"noRating","trial_type":"image-button-response","trial_index":20,"time_elapsed":60066,"internal_node_id":"0.0-20.0","participant_id":"A2JFRMQ3M0YZT2"},{"rt":1648,"stimulus":"stimuli/61.jpg","button_pressed":"2","name":"valence","trial_type":"image-button-response","trial_index":21,"time_elapsed":61714,"internal_node_id":"0.0-21.0","participant_id":"A2JFRMQ3M0YZT2"},{"rt":2011,"response":"2","name":"rating","trial_type":"image-slider-response","trial_index":22,"time_elapsed":63726,"internal_node_id":"0.0-22.0","participant_id":"A2JFRMQ3M0YZT2"},{"rt":1944,"stimulus":"stimuli/61.jpg","button_pressed":"2","name":"emotionType","trial_type":"image-button-response","trial_index":23,"time_elapsed":65672,"internal_node_id":"0.0-23.0","participant_id":"A2JFRMQ3M0YZT2"},{"rt":null,"stimulus":"<p style=\"font-size: 48px;\">+</p>","key_press":null,"Name":"fixation","trial_type":"html-keyboard-response","trial_index":24,"time_elapsed":67174,"internal_node_id":"0.0-24.0","participant_id":"A2JFRMQ3M0YZT2"},{"rt":null,"stimulus":"stimuli/62.jpg","button_pressed":null,"name":"noRating","trial_type":"image-button-response","trial_index":25,"time_elapsed":72175,"internal_node_id":"0.0-25.0","participant_id":"A2JFRMQ3M0YZT2"},{"rt":2986,"stimulus":"stimuli/62.jpg","button_pressed":"0","name":"valence","trial_type":"image-button-response","trial_index":26,"time_elapsed":75161,"internal_node_id":"0.0-26.0","participant_id":"A2JFRMQ3M0YZT2"},{"rt":1438,"response":"15","name":"rating","trial_type":"image-slider-response","trial_index":27,"time_elapsed":76601,"internal_node_id":"0.0-27.0","participant_id":"A2JFRMQ3M0YZT2"},{"rt":1579,"stimulus":"stimuli/62.jpg","button_pressed":"1","name":"emotionType","trial_type":"image-button-response","trial_index":28,"time_elapsed":78180,"internal_node_id":"0.0-28.0","participant_id":"A2JFRMQ3M0YZT2"},{"rt":null,"stimulus":"<p style=\"font-size: 48px;\">+</p>","key_press":null,"Name":"fixation","trial_type":"html-keyboard-response","trial_index":29,"time_elapsed":79183,"internal_node_id":"0.0-29.0","participant_id":"A2JFRMQ3M0YZT2"},{"rt":null,"stimulus":"stimuli/31.jpg","button_pressed":null,"name":"noRating","trial_type":"image-button-response","trial_index":30,"time_elapsed":84185,"internal_node_id":"0.0-30.0","participant_id":"A2JFRMQ3M0YZT2"},{"rt":1802,"stimulus":"stimuli/31.jpg","button_pressed":"2","name":"valence","trial_type":"image-button-response","trial_index":31,"time_elapsed":85988,"internal_node_id":"0.0-31.0","participant_id":"A2JFRMQ3M0YZT2"},{"rt":1839,"response":"13","name":"rating","trial_type":"image-slider-response","trial_index":32,"time_elapsed":87828,"internal_node_id":"0.0-32.0","participant_id":"A2JFRMQ3M0YZT2"},{"rt":2212,"stimulus":"stimuli/31.jpg","button_pressed":"2","name":"emotionType","trial_type":"image-button-response","trial_index":33,"time_elapsed":90041,"internal_node_id":"0.0-33.0","participant_id":"A2JFRMQ3M0YZT2"},{"rt":2629,"responses":"{\"Q0\":\"rock\"}","trial_type":"survey-text","trial_index":34,"time_elapsed":92671,"internal_node_id":"0.0-34.0-0.0","participant_id":"A2JFRMQ3M0YZT2"},{"rt":null,"stimulus":"<p style=\"font-size: 48px;\">+</p>","key_press":null,"Name":"fixation","trial_type":"html-keyboard-response","trial_index":35,"time_elapsed":94173,"internal_node_id":"0.0-35.0","participant_id":"A2JFRMQ3M0YZT2"},{"rt":null,"stimulus":"stimuli/27.jpg","button_pressed":null,"name":"noRating","trial_type":"image-button-response","trial_index":36,"time_elapsed":99175,"internal_node_id":"0.0-36.0","participant_id":"A2JFRMQ3M0YZT2"},{"rt":826,"stimulus":"stimuli/27.jpg","button_pressed":"0","name":"valence","trial_type":"image-button-response","trial_index":37,"time_elapsed":100002,"internal_node_id":"0.0-37.0","participant_id":"A2JFRMQ3M0YZT2"},{"rt":1419,"response":"12","name":"rating","trial_type":"image-slider-response","trial_index":38,"time_elapsed":101422,"internal_node_id":"0.0-38.0","participant_id":"A2JFRMQ3M0YZT2"},{"rt":2887,"stimulus":"stimuli/27.jpg","button_pressed":"0","name":"emotionType","trial_type":"image-button-response","trial_index":39,"time_elapsed":104310,"internal_node_id":"0.0-39.0","participant_id":"A2JFRMQ3M0YZT2"},{"rt":null,"stimulus":"<p style=\"font-size: 48px;\">+</p>","key_press":null,"Name":"fixation","trial_type":"html-keyboard-response","trial_index":40,"time_elapsed":105811,"internal_node_id":"0.0-40.0","participant_id":"A2JFRMQ3M0YZT2"},{"rt":null,"stimulus":"stimuli/5.jpg","button_pressed":null,"name":"noRating","trial_type":"image-button-response","trial_index":41,"time_elapsed":110812,"internal_node_id":"0.0-41.0","participant_id":"A2JFRMQ3M0YZT2"},{"rt":2403,"stimulus":"stimuli/5.jpg","button_pressed":"0","name":"valence","trial_type":"image-button-response","trial_index":42,"time_elapsed":113216,"internal_node_id":"0.0-42.0","participant_id":"A2JFRMQ3M0YZT2"},{"rt":1607,"response":"9","name":"rating","trial_type":"image-slider-response","trial_index":43,"time_elapsed":114825,"internal_node_id":"0.0-43.0","participant_id":"A2JFRMQ3M0YZT2"},{"rt":761,"stimulus":"stimuli/5.jpg","button_pressed":"0","name":"emotionType","trial_type":"image-button-response","trial_index":44,"time_elapsed":115586,"internal_node_id":"0.0-44.0","participant_id":"A2JFRMQ3M0YZT2"},{"rt":null,"stimulus":"<p style=\"font-size: 48px;\">+</p>","key_press":null,"Name":"fixation","trial_type":"html-keyboard-response","trial_index":45,"time_elapsed":117087,"internal_node_id":"0.0-45.0","participant_id":"A2JFRMQ3M0YZT2"},{"rt":null,"stimulus":"stimuli/40.jpg","button_pressed":null,"name":"noRating","trial_type":"image-button-response","trial_index":46,"time_elapsed":122088,"internal_node_id":"0.0-46.0","participant_id":"A2JFRMQ3M0YZT2"},{"rt":1485,"stimulus":"stimuli/40.jpg","button_pressed":"2","name":"valence","trial_type":"image-button-response","trial_index":47,"time_elapsed":123574,"internal_node_id":"0.0-47.0","participant_id":"A2JFRMQ3M0YZT2"},{"rt":1993,"response":"3","name":"rating","trial_type":"image-slider-response","trial_index":48,"time_elapsed":125568,"internal_node_id":"0.0-48.0","participant_id":"A2JFRMQ3M0YZT2"},{"rt":3436,"stimulus":"stimuli/40.jpg","button_pressed":"2","name":"emotionType","trial_type":"image-button-response","trial_index":49,"time_elapsed":129005,"internal_node_id":"0.0-49.0","participant_id":"A2JFRMQ3M0YZT2"},{"rt":null,"stimulus":"<p style=\"font-size: 48px;\">+</p>","key_press":null,"Name":"fixation","trial_type":"html-keyboard-response","trial_index":50,"time_elapsed":130008,"internal_node_id":"0.0-50.0","participant_id":"A2JFRMQ3M0YZT2"},{"rt":null,"stimulus":"stimuli/13.jpg","button_pressed":null,"name":"noRating","trial_type":"image-button-response","trial_index":51,"time_elapsed":135010,"internal_node_id":"0.0-51.0","participant_id":"A2JFRMQ3M0YZT2"},{"rt":1186,"stimulus":"stimuli/13.jpg","button_pressed":"1","name":"valence","trial_type":"image-button-response","trial_index":52,"time_elapsed":136196,"internal_node_id":"0.0-52.0","participant_id":"A2JFRMQ3M0YZT2"},{"rt":2664,"response":"3","name":"rating","trial_type":"image-slider-response","trial_index":53,"time_elapsed":138861,"internal_node_id":"0.0-53.0","participant_id":"A2JFRMQ3M0YZT2"},{"rt":3872,"stimulus":"stimuli/13.jpg","button_pressed":"4","name":"emotionType","trial_type":"image-button-response","trial_index":54,"time_elapsed":142734,"internal_node_id":"0.0-54.0","participant_id":"A2JFRMQ3M0YZT2"},{"rt":null,"stimulus":"<p style=\"font-size: 48px;\">+</p>","key_press":null,"Name":"fixation","trial_type":"html-keyboard-response","trial_index":55,"time_elapsed":143236,"internal_node_id":"0.0-55.0","participant_id":"A2JFRMQ3M0YZT2"},{"rt":null,"stimulus":"stimuli/39.jpg","button_pressed":null,"name":"noRating","trial_type":"image-button-response","trial_index":56,"time_elapsed":148238,"internal_node_id":"0.0-56.0","participant_id":"A2JFRMQ3M0YZT2"},{"rt":1082,"stimulus":"stimuli/39.jpg","button_pressed":"0","name":"valence","trial_type":"image-button-response","trial_index":57,"time_elapsed":149320,"internal_node_id":"0.0-57.0","participant_id":"A2JFRMQ3M0YZT2"},{"rt":1868,"response":"24","name":"rating","trial_type":"image-slider-response","trial_index":58,"time_elapsed":151189,"internal_node_id":"0.0-58.0","participant_id":"A2JFRMQ3M0YZT2"},{"rt":1064,"stimulus":"stimuli/39.jpg","button_pressed":"0","name":"emotionType","trial_type":"image-button-response","trial_index":59,"time_elapsed":152253,"internal_node_id":"0.0-59.0","participant_id":"A2JFRMQ3M0YZT2"},{"rt":3462,"responses":"{\"Q0\":\"sky\"}","trial_type":"survey-text","trial_index":60,"time_elapsed":155715,"internal_node_id":"0.0-60.0-0.0","participant_id":"A2JFRMQ3M0YZT2"},{"rt":null,"stimulus":"<p style=\"font-size: 48px;\">+</p>","key_press":null,"Name":"fixation","trial_type":"html-keyboard-response","trial_index":61,"time_elapsed":156216,"internal_node_id":"0.0-61.0","participant_id":"A2JFRMQ3M0YZT2"},{"rt":null,"stimulus":"stimuli/10.jpg","button_pressed":null,"name":"noRating","trial_type":"image-button-response","trial_index":62,"time_elapsed":161217,"internal_node_id":"0.0-62.0","participant_id":"A2JFRMQ3M0YZT2"},{"rt":903,"stimulus":"stimuli/10.jpg","button_pressed":"0","name":"valence","trial_type":"image-button-response","trial_index":63,"time_elapsed":162121,"internal_node_id":"0.0-63.0","participant_id":"A2JFRMQ3M0YZT2"},{"rt":1307,"response":"5","name":"rating","trial_type":"image-slider-response","trial_index":64,"time_elapsed":163430,"internal_node_id":"0.0-64.0","participant_id":"A2JFRMQ3M0YZT2"},{"rt":1418,"stimulus":"stimuli/10.jpg","button_pressed":"0","name":"emotionType","trial_type":"image-button-response","trial_index":65,"time_elapsed":164848,"internal_node_id":"0.0-65.0","participant_id":"A2JFRMQ3M0YZT2"},{"rt":null,"stimulus":"<p style=\"font-size: 48px;\">+</p>","key_press":null,"Name":"fixation","trial_type":"html-keyboard-response","trial_index":66,"time_elapsed":165349,"internal_node_id":"0.0-66.0","participant_id":"A2JFRMQ3M0YZT2"},{"rt":null,"stimulus":"stimuli/63.jpg","button_pressed":null,"name":"noRating","trial_type":"image-button-response","trial_index":67,"time_elapsed":170350,"internal_node_id":"0.0-67.0","participant_id":"A2JFRMQ3M0YZT2"},{"rt":1051,"stimulus":"stimuli/63.jpg","button_pressed":"0","name":"valence","trial_type":"image-button-response","trial_index":68,"time_elapsed":171402,"internal_node_id":"0.0-68.0","participant_id":"A2JFRMQ3M0YZT2"},{"rt":1691,"response":"4","name":"rating","trial_type":"image-slider-response","trial_index":69,"time_elapsed":173094,"internal_node_id":"0.0-69.0","participant_id":"A2JFRMQ3M0YZT2"},{"rt":668,"stimulus":"stimuli/63.jpg","button_pressed":"1","name":"emotionType","trial_type":"image-button-response","trial_index":70,"time_elapsed":173763,"internal_node_id":"0.0-70.0","participant_id":"A2JFRMQ3M0YZT2"},{"rt":null,"stimulus":"<p style=\"font-size: 48px;\">+</p>","key_press":null,"Name":"fixation","trial_type":"html-keyboard-response","trial_index":71,"time_elapsed":175264,"internal_node_id":"0.0-71.0","participant_id":"A2JFRMQ3M0YZT2"},{"rt":null,"stimulus":"stimuli/56.jpg","button_pressed":null,"name":"noRating","trial_type":"image-button-response","trial_index":72,"time_elapsed":180265,"internal_node_id":"0.0-72.0","participant_id":"A2JFRMQ3M0YZT2"},{"rt":1436,"stimulus":"stimuli/56.jpg","button_pressed":"2","name":"valence","trial_type":"image-button-response","trial_index":73,"time_elapsed":181702,"internal_node_id":"0.0-73.0","participant_id":"A2JFRMQ3M0YZT2"},{"rt":1801,"response":"5","name":"rating","trial_type":"image-slider-response","trial_index":74,"time_elapsed":183503,"internal_node_id":"0.0-74.0","participant_id":"A2JFRMQ3M0YZT2"},{"rt":2901,"stimulus":"stimuli/56.jpg","button_pressed":"2","name":"emotionType","trial_type":"image-button-response","trial_index":75,"time_elapsed":186405,"internal_node_id":"0.0-75.0","participant_id":"A2JFRMQ3M0YZT2"},{"rt":null,"stimulus":"<p style=\"font-size: 48px;\">+</p>","key_press":null,"Name":"fixation","trial_type":"html-keyboard-response","trial_index":76,"time_elapsed":186906,"internal_node_id":"0.0-76.0","participant_id":"A2JFRMQ3M0YZT2"},{"rt":null,"stimulus":"stimuli/51.jpg","button_pressed":null,"name":"noRating","trial_type":"image-button-response","trial_index":77,"time_elapsed":191907,"internal_node_id":"0.0-77.0","participant_id":"A2JFRMQ3M0YZT2"},{"rt":1054,"stimulus":"stimuli/51.jpg","button_pressed":"0","name":"valence","trial_type":"image-button-response","trial_index":78,"time_elapsed":192962,"internal_node_id":"0.0-78.0","participant_id":"A2JFRMQ3M0YZT2"},{"rt":2089,"response":"16","name":"rating","trial_type":"image-slider-response","trial_index":79,"time_elapsed":195052,"internal_node_id":"0.0-79.0","participant_id":"A2JFRMQ3M0YZT2"},{"rt":1075,"stimulus":"stimuli/51.jpg","button_pressed":"1","name":"emotionType","trial_type":"image-button-response","trial_index":80,"time_elapsed":196128,"internal_node_id":"0.0-80.0","participant_id":"A2JFRMQ3M0YZT2"},{"rt":null,"stimulus":"<p style=\"font-size: 48px;\">+</p>","key_press":null,"Name":"fixation","trial_type":"html-keyboard-response","trial_index":81,"time_elapsed":196629,"internal_node_id":"0.0-81.0","participant_id":"A2JFRMQ3M0YZT2"},{"rt":null,"stimulus":"stimuli/2.jpg","button_pressed":null,"name":"noRating","trial_type":"image-button-response","trial_index":82,"time_elapsed":201630,"internal_node_id":"0.0-82.0","participant_id":"A2JFRMQ3M0YZT2"},{"rt":1256,"stimulus":"stimuli/2.jpg","button_pressed":"0","name":"valence","trial_type":"image-button-response","trial_index":83,"time_elapsed":202888,"internal_node_id":"0.0-83.0","participant_id":"A2JFRMQ3M0YZT2"},{"rt":2046,"response":"6","name":"rating","trial_type":"image-slider-response","trial_index":84,"time_elapsed":204936,"internal_node_id":"0.0-84.0","participant_id":"A2JFRMQ3M0YZT2"},{"rt":1763,"stimulus":"stimuli/2.jpg","button_pressed":"0","name":"emotionType","trial_type":"image-button-response","trial_index":85,"time_elapsed":206699,"internal_node_id":"0.0-85.0","participant_id":"A2JFRMQ3M0YZT2"},{"rt":5076,"responses":"{\"Q0\":\"our\"}","trial_type":"survey-text","trial_index":86,"time_elapsed":211775,"internal_node_id":"0.0-86.0-0.0","participant_id":"A2JFRMQ3M0YZT2"},{"rt":null,"stimulus":"<p style=\"font-size: 48px;\">+</p>","key_press":null,"Name":"fixation","trial_type":"html-keyboard-response","trial_index":87,"time_elapsed":212776,"internal_node_id":"0.0-87.0","participant_id":"A2JFRMQ3M0YZT2"},{"rt":null,"stimulus":"stimuli/26.jpg","button_pressed":null,"name":"noRating","trial_type":"image-button-response","trial_index":88,"time_elapsed":217779,"internal_node_id":"0.0-88.0","participant_id":"A2JFRMQ3M0YZT2"},{"rt":1311,"stimulus":"stimuli/26.jpg","button_pressed":"2","name":"valence","trial_type":"image-button-response","trial_index":89,"time_elapsed":219091,"internal_node_id":"0.0-89.0","participant_id":"A2JFRMQ3M0YZT2"},{"rt":1957,"response":"4","name":"rating","trial_type":"image-slider-response","trial_index":90,"time_elapsed":221048,"internal_node_id":"0.0-90.0","participant_id":"A2JFRMQ3M0YZT2"},{"rt":1148,"stimulus":"stimuli/26.jpg","button_pressed":"2","name":"emotionType","trial_type":"image-button-response","trial_index":91,"time_elapsed":222197,"internal_node_id":"0.0-91.0","participant_id":"A2JFRMQ3M0YZT2"},{"rt":null,"stimulus":"<p style=\"font-size: 48px;\">+</p>","key_press":null,"Name":"fixation","trial_type":"html-keyboard-response","trial_index":92,"time_elapsed":222698,"internal_node_id":"0.0-92.0","participant_id":"A2JFRMQ3M0YZT2"},{"rt":null,"stimulus":"stimuli/28.jpg","button_pressed":null,"name":"noRating","trial_type":"image-button-response","trial_index":93,"time_elapsed":227700,"internal_node_id":"0.0-93.0","participant_id":"A2JFRMQ3M0YZT2"},{"rt":690,"stimulus":"stimuli/28.jpg","button_pressed":"0","name":"valence","trial_type":"image-button-response","trial_index":94,"time_elapsed":228392,"internal_node_id":"0.0-94.0","participant_id":"A2JFRMQ3M0YZT2"},{"rt":2364,"response":"4","name":"rating","trial_type":"image-slider-response","trial_index":95,"time_elapsed":230758,"internal_node_id":"0.0-95.0","participant_id":"A2JFRMQ3M0YZT2"},{"rt":607,"stimulus":"stimuli/28.jpg","button_pressed":"1","name":"emotionType","trial_type":"image-button-response","trial_index":96,"time_elapsed":231366,"internal_node_id":"0.0-96.0","participant_id":"A2JFRMQ3M0YZT2"},{"rt":null,"stimulus":"<p style=\"font-size: 48px;\">+</p>","key_press":null,"Name":"fixation","trial_type":"html-keyboard-response","trial_index":97,"time_elapsed":232868,"internal_node_id":"0.0-97.0","participant_id":"A2JFRMQ3M0YZT2"},{"rt":null,"stimulus":"stimuli/33.jpg","button_pressed":null,"name":"noRating","trial_type":"image-button-response","trial_index":98,"time_elapsed":237869,"internal_node_id":"0.0-98.0","participant_id":"A2JFRMQ3M0YZT2"},{"rt":1883,"stimulus":"stimuli/33.jpg","button_pressed":"0","name":"valence","trial_type":"image-button-response","trial_index":99,"time_elapsed":239754,"internal_node_id":"0.0-99.0","participant_id":"A2JFRMQ3M0YZT2"},{"rt":1525,"response":"15","name":"rating","trial_type":"image-slider-response","trial_index":100,"time_elapsed":241281,"internal_node_id":"0.0-100.0","participant_id":"A2JFRMQ3M0YZT2"},{"rt":502,"stimulus":"stimuli/33.jpg","button_pressed":"0","name":"emotionType","trial_type":"image-button-response","trial_index":101,"time_elapsed":241784,"internal_node_id":"0.0-101.0","participant_id":"A2JFRMQ3M0YZT2"},{"rt":null,"stimulus":"<p style=\"font-size: 48px;\">+</p>","key_press":null,"Name":"fixation","trial_type":"html-keyboard-response","trial_index":102,"time_elapsed":242285,"internal_node_id":"0.0-102.0","participant_id":"A2JFRMQ3M0YZT2"},{"rt":null,"stimulus":"stimuli/18.jpg","button_pressed":null,"name":"noRating","trial_type":"image-button-response","trial_index":103,"time_elapsed":247286,"internal_node_id":"0.0-103.0","participant_id":"A2JFRMQ3M0YZT2"},{"rt":1032,"stimulus":"stimuli/18.jpg","button_pressed":"2","name":"valence","trial_type":"image-button-response","trial_index":104,"time_elapsed":248320,"internal_node_id":"0.0-104.0","participant_id":"A2JFRMQ3M0YZT2"},{"rt":1993,"response":"1","name":"rating","trial_type":"image-slider-response","trial_index":105,"time_elapsed":250315,"internal_node_id":"0.0-105.0","participant_id":"A2JFRMQ3M0YZT2"},{"rt":1199,"stimulus":"stimuli/18.jpg","button_pressed":"2","name":"emotionType","trial_type":"image-button-response","trial_index":106,"time_elapsed":251516,"internal_node_id":"0.0-106.0","participant_id":"A2JFRMQ3M0YZT2"},{"rt":null,"stimulus":"<p style=\"font-size: 48px;\">+</p>","key_press":null,"Name":"fixation","trial_type":"html-keyboard-response","trial_index":107,"time_elapsed":252518,"internal_node_id":"0.0-107.0","participant_id":"A2JFRMQ3M0YZT2"},{"rt":null,"stimulus":"stimuli/57.jpg","button_pressed":null,"name":"noRating","trial_type":"image-button-response","trial_index":108,"time_elapsed":257520,"internal_node_id":"0.0-108.0","participant_id":"A2JFRMQ3M0YZT2"},{"rt":6623,"stimulus":"stimuli/57.jpg","button_pressed":"2","name":"valence","trial_type":"image-button-response","trial_index":109,"time_elapsed":264144,"internal_node_id":"0.0-109.0","participant_id":"A2JFRMQ3M0YZT2"},{"rt":2051,"response":"1","name":"rating","trial_type":"image-slider-response","trial_index":110,"time_elapsed":266195,"internal_node_id":"0.0-110.0","participant_id":"A2JFRMQ3M0YZT2"},{"rt":1229,"stimulus":"stimuli/57.jpg","button_pressed":"2","name":"emotionType","trial_type":"image-button-response","trial_index":111,"time_elapsed":267426,"internal_node_id":"0.0-111.0","participant_id":"A2JFRMQ3M0YZT2"},{"rt":2648,"responses":"{\"Q0\":\"course\"}","trial_type":"survey-text","trial_index":112,"time_elapsed":270074,"internal_node_id":"0.0-112.0-0.0","participant_id":"A2JFRMQ3M0YZT2"},{"rt":null,"stimulus":"<p style=\"font-size: 48px;\">+</p>","key_press":null,"Name":"fixation","trial_type":"html-keyboard-response","trial_index":113,"time_elapsed":271076,"internal_node_id":"0.0-113.0","participant_id":"A2JFRMQ3M0YZT2"},{"rt":null,"stimulus":"stimuli/52.jpg","button_pressed":null,"name":"noRating","trial_type":"image-button-response","trial_index":114,"time_elapsed":276077,"internal_node_id":"0.0-114.0","participant_id":"A2JFRMQ3M0YZT2"},{"rt":820,"stimulus":"stimuli/52.jpg","button_pressed":"0","name":"valence","trial_type":"image-button-response","trial_index":115,"time_elapsed":276898,"internal_node_id":"0.0-115.0","participant_id":"A2JFRMQ3M0YZT2"},{"rt":1350,"response":"3","name":"rating","trial_type":"image-slider-response","trial_index":116,"time_elapsed":278249,"internal_node_id":"0.0-116.0","participant_id":"A2JFRMQ3M0YZT2"},{"rt":740,"stimulus":"stimuli/52.jpg","button_pressed":"1","name":"emotionType","trial_type":"image-button-response","trial_index":117,"time_elapsed":278990,"internal_node_id":"0.0-117.0","participant_id":"A2JFRMQ3M0YZT2"},{"rt":null,"stimulus":"<p style=\"font-size: 48px;\">+</p>","key_press":null,"Name":"fixation","trial_type":"html-keyboard-response","trial_index":118,"time_elapsed":279992,"internal_node_id":"0.0-118.0","participant_id":"A2JFRMQ3M0YZT2"},{"rt":null,"stimulus":"stimuli/1.jpg","button_pressed":null,"name":"noRating","trial_type":"image-button-response","trial_index":119,"time_elapsed":284993,"internal_node_id":"0.0-119.0","participant_id":"A2JFRMQ3M0YZT2"},{"rt":1426,"stimulus":"stimuli/1.jpg","button_pressed":"2","name":"valence","trial_type":"image-button-response","trial_index":120,"time_elapsed":286421,"internal_node_id":"0.0-120.0","participant_id":"A2JFRMQ3M0YZT2"},{"rt":1482,"response":"6","name":"rating","trial_type":"image-slider-response","trial_index":121,"time_elapsed":287904,"internal_node_id":"0.0-121.0","participant_id":"A2JFRMQ3M0YZT2"},{"rt":908,"stimulus":"stimuli/1.jpg","button_pressed":"2","name":"emotionType","trial_type":"image-button-response","trial_index":122,"time_elapsed":288813,"internal_node_id":"0.0-122.0","participant_id":"A2JFRMQ3M0YZT2"},{"rt":null,"stimulus":"<p style=\"font-size: 48px;\">+</p>","key_press":null,"Name":"fixation","trial_type":"html-keyboard-response","trial_index":123,"time_elapsed":289314,"internal_node_id":"0.0-123.0","participant_id":"A2JFRMQ3M0YZT2"},{"rt":null,"stimulus":"stimuli/25.jpg","button_pressed":null,"name":"noRating","trial_type":"image-button-response","trial_index":124,"time_elapsed":294315,"internal_node_id":"0.0-124.0","participant_id":"A2JFRMQ3M0YZT2"},{"rt":865,"stimulus":"stimuli/25.jpg","button_pressed":"2","name":"valence","trial_type":"image-button-response","trial_index":125,"time_elapsed":295182,"internal_node_id":"0.0-125.0","participant_id":"A2JFRMQ3M0YZT2"},{"rt":1232,"response":"6","name":"rating","trial_type":"image-slider-response","trial_index":126,"time_elapsed":296414,"internal_node_id":"0.0-126.0","participant_id":"A2JFRMQ3M0YZT2"},{"rt":547,"stimulus":"stimuli/25.jpg","button_pressed":"2","name":"emotionType","trial_type":"image-button-response","trial_index":127,"time_elapsed":296962,"internal_node_id":"0.0-127.0","participant_id":"A2JFRMQ3M0YZT2"},{"rt":null,"stimulus":"<p style=\"font-size: 48px;\">+</p>","key_press":null,"Name":"fixation","trial_type":"html-keyboard-response","trial_index":128,"time_elapsed":297965,"internal_node_id":"0.0-128.0","participant_id":"A2JFRMQ3M0YZT2"},{"rt":null,"stimulus":"stimuli/34.jpg","button_pressed":null,"name":"noRating","trial_type":"image-button-response","trial_index":129,"time_elapsed":302966,"internal_node_id":"0.0-129.0","participant_id":"A2JFRMQ3M0YZT2"},{"rt":565,"stimulus":"stimuli/34.jpg","button_pressed":"0","name":"valence","trial_type":"image-button-response","trial_index":130,"time_elapsed":303531,"internal_node_id":"0.0-130.0","participant_id":"A2JFRMQ3M0YZT2"},{"rt":1824,"response":"15","name":"rating","trial_type":"image-slider-response","trial_index":131,"time_elapsed":305356,"internal_node_id":"0.0-131.0","participant_id":"A2JFRMQ3M0YZT2"},{"rt":613,"stimulus":"stimuli/34.jpg","button_pressed":"0","name":"emotionType","trial_type":"image-button-response","trial_index":132,"time_elapsed":305970,"internal_node_id":"0.0-132.0","participant_id":"A2JFRMQ3M0YZT2"},{"rt":null,"stimulus":"<p style=\"font-size: 48px;\">+</p>","key_press":null,"Name":"fixation","trial_type":"html-keyboard-response","trial_index":133,"time_elapsed":306972,"internal_node_id":"0.0-133.0","participant_id":"A2JFRMQ3M0YZT2"},{"rt":null,"stimulus":"stimuli/65.jpg","button_pressed":null,"name":"noRating","trial_type":"image-button-response","trial_index":134,"time_elapsed":311973,"internal_node_id":"0.0-134.0","participant_id":"A2JFRMQ3M0YZT2"},{"rt":642,"stimulus":"stimuli/65.jpg","button_pressed":"0","name":"valence","trial_type":"image-button-response","trial_index":135,"time_elapsed":312616,"internal_node_id":"0.0-135.0","participant_id":"A2JFRMQ3M0YZT2"},{"rt":1230,"response":"12","name":"rating","trial_type":"image-slider-response","trial_index":136,"time_elapsed":313847,"internal_node_id":"0.0-136.0","participant_id":"A2JFRMQ3M0YZT2"},{"rt":570,"stimulus":"stimuli/65.jpg","button_pressed":"1","name":"emotionType","trial_type":"image-button-response","trial_index":137,"time_elapsed":314418,"internal_node_id":"0.0-137.0","participant_id":"A2JFRMQ3M0YZT2"},{"rt":2056,"responses":"{\"Q0\":\"we\"}","trial_type":"survey-text","trial_index":138,"time_elapsed":316475,"internal_node_id":"0.0-138.0-0.0","participant_id":"A2JFRMQ3M0YZT2"},{"rt":null,"stimulus":"<p style=\"font-size: 48px;\">+</p>","key_press":null,"Name":"fixation","trial_type":"html-keyboard-response","trial_index":139,"time_elapsed":316976,"internal_node_id":"0.0-139.0","participant_id":"A2JFRMQ3M0YZT2"},{"rt":null,"stimulus":"stimuli/46.jpg","button_pressed":null,"name":"noRating","trial_type":"image-button-response","trial_index":140,"time_elapsed":321977,"internal_node_id":"0.0-140.0","participant_id":"A2JFRMQ3M0YZT2"},{"rt":688,"stimulus":"stimuli/46.jpg","button_pressed":"0","name":"valence","trial_type":"image-button-response","trial_index":141,"time_elapsed":322666,"internal_node_id":"0.0-141.0","participant_id":"A2JFRMQ3M0YZT2"},{"rt":1870,"response":"15","name":"rating","trial_type":"image-slider-response","trial_index":142,"time_elapsed":324536,"internal_node_id":"0.0-142.0","participant_id":"A2JFRMQ3M0YZT2"},{"rt":998,"stimulus":"stimuli/46.jpg","button_pressed":"1","name":"emotionType","trial_type":"image-button-response","trial_index":143,"time_elapsed":325535,"internal_node_id":"0.0-143.0","participant_id":"A2JFRMQ3M0YZT2"},{"rt":null,"stimulus":"<p style=\"font-size: 48px;\">+</p>","key_press":null,"Name":"fixation","trial_type":"html-keyboard-response","trial_index":144,"time_elapsed":326536,"internal_node_id":"0.0-144.0","participant_id":"A2JFRMQ3M0YZT2"},{"rt":null,"stimulus":"stimuli/37.jpg","button_pressed":null,"name":"noRating","trial_type":"image-button-response","trial_index":145,"time_elapsed":331536,"internal_node_id":"0.0-145.0","participant_id":"A2JFRMQ3M0YZT2"},{"rt":1903,"stimulus":"stimuli/37.jpg","button_pressed":"0","name":"valence","trial_type":"image-button-response","trial_index":146,"time_elapsed":333440,"internal_node_id":"0.0-146.0","participant_id":"A2JFRMQ3M0YZT2"},{"rt":1864,"response":"14","name":"rating","trial_type":"image-slider-response","trial_index":147,"time_elapsed":335306,"internal_node_id":"0.0-147.0","participant_id":"A2JFRMQ3M0YZT2"},{"rt":684,"stimulus":"stimuli/37.jpg","button_pressed":"0","name":"emotionType","trial_type":"image-button-response","trial_index":148,"time_elapsed":335991,"internal_node_id":"0.0-148.0","participant_id":"A2JFRMQ3M0YZT2"},{"rt":null,"stimulus":"<p style=\"font-size: 48px;\">+</p>","key_press":null,"Name":"fixation","trial_type":"html-keyboard-response","trial_index":149,"time_elapsed":337493,"internal_node_id":"0.0-149.0","participant_id":"A2JFRMQ3M0YZT2"},{"rt":null,"stimulus":"stimuli/68.jpg","button_pressed":null,"name":"noRating","trial_type":"image-button-response","trial_index":150,"time_elapsed":342494,"internal_node_id":"0.0-150.0","participant_id":"A2JFRMQ3M0YZT2"},{"rt":1056,"stimulus":"stimuli/68.jpg","button_pressed":"2","name":"valence","trial_type":"image-button-response","trial_index":151,"time_elapsed":343552,"internal_node_id":"0.0-151.0","participant_id":"A2JFRMQ3M0YZT2"},{"rt":1898,"response":"5","name":"rating","trial_type":"image-slider-response","trial_index":152,"time_elapsed":345451,"internal_node_id":"0.0-152.0","participant_id":"A2JFRMQ3M0YZT2"},{"rt":922,"stimulus":"stimuli/68.jpg","button_pressed":"2","name":"emotionType","trial_type":"image-button-response","trial_index":153,"time_elapsed":346373,"internal_node_id":"0.0-153.0","participant_id":"A2JFRMQ3M0YZT2"},{"rt":null,"stimulus":"<p style=\"font-size: 48px;\">+</p>","key_press":null,"Name":"fixation","trial_type":"html-keyboard-response","trial_index":154,"time_elapsed":347874,"internal_node_id":"0.0-154.0","participant_id":"A2JFRMQ3M0YZT2"},{"rt":null,"stimulus":"stimuli/35.jpg","button_pressed":null,"name":"noRating","trial_type":"image-button-response","trial_index":155,"time_elapsed":352875,"internal_node_id":"0.0-155.0","participant_id":"A2JFRMQ3M0YZT2"},{"rt":691,"stimulus":"stimuli/35.jpg","button_pressed":"0","name":"valence","trial_type":"image-button-response","trial_index":156,"time_elapsed":353567,"internal_node_id":"0.0-156.0","participant_id":"A2JFRMQ3M0YZT2"},{"rt":1720,"response":"13","name":"rating","trial_type":"image-slider-response","trial_index":157,"time_elapsed":355288,"internal_node_id":"0.0-157.0","participant_id":"A2JFRMQ3M0YZT2"},{"rt":765,"stimulus":"stimuli/35.jpg","button_pressed":"1","name":"emotionType","trial_type":"image-button-response","trial_index":158,"time_elapsed":356055,"internal_node_id":"0.0-158.0","participant_id":"A2JFRMQ3M0YZT2"},{"rt":null,"stimulus":"<p style=\"font-size: 48px;\">+</p>","key_press":null,"Name":"fixation","trial_type":"html-keyboard-response","trial_index":159,"time_elapsed":357556,"internal_node_id":"0.0-159.0","participant_id":"A2JFRMQ3M0YZT2"},{"rt":null,"stimulus":"stimuli/9.jpg","button_pressed":null,"name":"noRating","trial_type":"image-button-response","trial_index":160,"time_elapsed":362560,"internal_node_id":"0.0-160.0","participant_id":"A2JFRMQ3M0YZT2"},{"rt":1517,"stimulus":"stimuli/9.jpg","button_pressed":"2","name":"valence","trial_type":"image-button-response","trial_index":161,"time_elapsed":364078,"internal_node_id":"0.0-161.0","participant_id":"A2JFRMQ3M0YZT2"},{"rt":2093,"response":"2","name":"rating","trial_type":"image-slider-response","trial_index":162,"time_elapsed":366172,"internal_node_id":"0.0-162.0","participant_id":"A2JFRMQ3M0YZT2"},{"rt":771,"stimulus":"stimuli/9.jpg","button_pressed":"1","name":"emotionType","trial_type":"image-button-response","trial_index":163,"time_elapsed":366944,"internal_node_id":"0.0-163.0","participant_id":"A2JFRMQ3M0YZT2"},{"rt":1553,"stimulus":"stimuli/ins/Slide8.JPG","button_pressed":"0","trial_type":"image-button-response","trial_index":164,"time_elapsed":368498,"internal_node_id":"0.0-164.0","participant_id":"A2JFRMQ3M0YZT2"}]