[{"rt":9825,"responses":"{\"Q0\":\"A2UX0UXTM5AJQ1\"}","trial_type":"survey-text","trial_index":0,"time_elapsed":9830,"internal_node_id":"0.0-0.0-0.0","participant_id":"A2UX0UXTM5AJQ1"},{"rt":7857,"stimulus":"stimuli/ins/Slide1.JPG","button_pressed":"0","Name":"instructions","trial_type":"image-button-response","trial_index":1,"time_elapsed":17690,"internal_node_id":"0.0-1.0","participant_id":"A2UX0UXTM5AJQ1"},{"rt":4478,"stimulus":"stimuli/ins/Slide2.JPG","button_pressed":"0","Name":"instructions","trial_type":"image-button-response","trial_index":2,"time_elapsed":22170,"internal_node_id":"0.0-2.0","participant_id":"A2UX0UXTM5AJQ1"},{"rt":6286,"stimulus":"stimuli/ins/Slide3.JPG","button_pressed":"0","Name":"instructions","trial_type":"image-button-response","trial_index":3,"time_elapsed":28458,"internal_node_id":"0.0-3.0","participant_id":"A2UX0UXTM5AJQ1"},{"rt":8526,"stimulus":"stimuli/ins/Slide4.JPG","button_pressed":"0","Name":"instructions","trial_type":"image-button-response","trial_index":4,"time_elapsed":36985,"internal_node_id":"0.0-4.0","participant_id":"A2UX0UXTM5AJQ1"},{"rt":7815,"stimulus":"stimuli/ins/Slide5.JPG","button_pressed":"0","Name":"instructions","trial_type":"image-button-response","trial_index":5,"time_elapsed":44802,"internal_node_id":"0.0-5.0","participant_id":"A2UX0UXTM5AJQ1"},{"rt":3831,"stimulus":"stimuli/ins/Slide6.JPG","button_pressed":"0","Name":"instructions","trial_type":"image-button-response","trial_index":6,"time_elapsed":48634,"internal_node_id":"0.0-6.0","participant_id":"A2UX0UXTM5AJQ1"},{"rt":1271,"stimulus":"stimuli/ins/Slide7.JPG","button_pressed":"0","Name":"instructions","trial_type":"image-button-response","trial_index":7,"time_elapsed":49905,"internal_node_id":"0.0-7.0","participant_id":"A2UX0UXTM5AJQ1"},{"rt":5095,"responses":"{\"Q0\":\"but\"}","trial_type":"survey-text","trial_index":8,"time_elapsed":55002,"internal_node_id":"0.0-8.0-0.0","participant_id":"A2UX0UXTM5AJQ1"},{"rt":null,"stimulus":"<p style=\"font-size: 48px;\">+</p>","key_press":null,"Name":"fixation","trial_type":"html-keyboard-response","trial_index":9,"time_elapsed":56504,"internal_node_id":"0.0-9.0","participant_id":"A2UX0UXTM5AJQ1"},{"rt":null,"stimulus":"stimuli/53.jpg","button_pressed":null,"name":"noRating","trial_type":"image-button-response","trial_index":10,"time_elapsed":61505,"internal_node_id":"0.0-10.0","participant_id":"A2UX0UXTM5AJQ1"},{"rt":1919,"stimulus":"stimuli/53.jpg","button_pressed":"0","name":"valence","trial_type":"image-button-response","trial_index":11,"time_elapsed":63426,"internal_node_id":"0.0-11.0","participant_id":"A2UX0UXTM5AJQ1"},{"rt":7006,"response":"0","name":"rating","trial_type":"image-slider-response","trial_index":12,"time_elapsed":70435,"internal_node_id":"0.0-12.0","participant_id":"A2UX0UXTM5AJQ1"},{"rt":8223,"stimulus":"stimuli/53.jpg","button_pressed":"0","name":"emotionType","trial_type":"image-button-response","trial_index":13,"time_elapsed":84777,"internal_node_id":"0.0-13.0","participant_id":"A2UX0UXTM5AJQ1"},{"rt":null,"stimulus":"<p style=\"font-size: 48px;\">+</p>","key_press":null,"Name":"fixation","trial_type":"html-keyboard-response","trial_index":14,"time_elapsed":85779,"internal_node_id":"0.0-14.0","participant_id":"A2UX0UXTM5AJQ1"},{"rt":null,"stimulus":"stimuli/70.jpg","button_pressed":null,"name":"noRating","trial_type":"image-button-response","trial_index":15,"time_elapsed":90779,"internal_node_id":"0.0-15.0","participant_id":"A2UX0UXTM5AJQ1"},{"rt":3030,"stimulus":"stimuli/70.jpg","button_pressed":"2","name":"valence","trial_type":"image-button-response","trial_index":16,"time_elapsed":93811,"internal_node_id":"0.0-16.0","participant_id":"A2UX0UXTM5AJQ1"},{"rt":6213,"response":"2","name":"rating","trial_type":"image-slider-response","trial_index":17,"time_elapsed":100025,"internal_node_id":"0.0-17.0","participant_id":"A2UX0UXTM5AJQ1"},{"rt":3879,"stimulus":"stimuli/70.jpg","button_pressed":"2","name":"emotionType","trial_type":"image-button-response","trial_index":18,"time_elapsed":103905,"internal_node_id":"0.0-18.0","participant_id":"A2UX0UXTM5AJQ1"},{"rt":null,"stimulus":"<p style=\"font-size: 48px;\">+</p>","key_press":null,"Name":"fixation","trial_type":"html-keyboard-response","trial_index":19,"time_elapsed":105406,"internal_node_id":"0.0-19.0","participant_id":"A2UX0UXTM5AJQ1"},{"rt":null,"stimulus":"stimuli/2.jpg","button_pressed":null,"name":"noRating","trial_type":"image-button-response","trial_index":20,"time_elapsed":110407,"internal_node_id":"0.0-20.0","participant_id":"A2UX0UXTM5AJQ1"},{"rt":1297,"stimulus":"stimuli/2.jpg","button_pressed":"0","name":"valence","trial_type":"image-button-response","trial_index":21,"time_elapsed":111705,"internal_node_id":"0.0-21.0","participant_id":"A2UX0UXTM5AJQ1"},{"rt":2655,"response":"16","name":"rating","trial_type":"image-slider-response","trial_index":22,"time_elapsed":114361,"internal_node_id":"0.0-22.0","participant_id":"A2UX0UXTM5AJQ1"},{"rt":3087,"stimulus":"stimuli/2.jpg","button_pressed":"0","name":"emotionType","trial_type":"image-button-response","trial_index":23,"time_elapsed":117449,"internal_node_id":"0.0-23.0","participant_id":"A2UX0UXTM5AJQ1"},{"rt":null,"stimulus":"<p style=\"font-size: 48px;\">+</p>","key_press":null,"Name":"fixation","trial_type":"html-keyboard-response","trial_index":24,"time_elapsed":117950,"internal_node_id":"0.0-24.0","participant_id":"A2UX0UXTM5AJQ1"},{"rt":null,"stimulus":"stimuli/13.jpg","button_pressed":null,"name":"noRating","trial_type":"image-button-response","trial_index":25,"time_elapsed":122951,"internal_node_id":"0.0-25.0","participant_id":"A2UX0UXTM5AJQ1"},{"rt":7344,"stimulus":"stimuli/13.jpg","button_pressed":"0","name":"valence","trial_type":"image-button-response","trial_index":26,"time_elapsed":130297,"internal_node_id":"0.0-26.0","participant_id":"A2UX0UXTM5AJQ1"},{"rt":2455,"response":"13","name":"rating","trial_type":"image-slider-response","trial_index":27,"time_elapsed":132753,"internal_node_id":"0.0-27.0","participant_id":"A2UX0UXTM5AJQ1"},{"rt":1534,"stimulus":"stimuli/13.jpg","button_pressed":"2","name":"emotionType","trial_type":"image-button-response","trial_index":28,"time_elapsed":134289,"internal_node_id":"0.0-28.0","participant_id":"A2UX0UXTM5AJQ1"},{"rt":null,"stimulus":"<p style=\"font-size: 48px;\">+</p>","key_press":null,"Name":"fixation","trial_type":"html-keyboard-response","trial_index":29,"time_elapsed":135290,"internal_node_id":"0.0-29.0","participant_id":"A2UX0UXTM5AJQ1"},{"rt":null,"stimulus":"stimuli/61.jpg","button_pressed":null,"name":"noRating","trial_type":"image-button-response","trial_index":30,"time_elapsed":140291,"internal_node_id":"0.0-30.0","participant_id":"A2UX0UXTM5AJQ1"},{"rt":1332,"stimulus":"stimuli/61.jpg","button_pressed":"0","name":"valence","trial_type":"image-button-response","trial_index":31,"time_elapsed":141625,"internal_node_id":"0.0-31.0","participant_id":"A2UX0UXTM5AJQ1"},{"rt":2686,"response":"9","name":"rating","trial_type":"image-slider-response","trial_index":32,"time_elapsed":144313,"internal_node_id":"0.0-32.0","participant_id":"A2UX0UXTM5AJQ1"},{"rt":1126,"stimulus":"stimuli/61.jpg","button_pressed":"2","name":"emotionType","trial_type":"image-button-response","trial_index":33,"time_elapsed":145441,"internal_node_id":"0.0-33.0","participant_id":"A2UX0UXTM5AJQ1"},{"rt":5310,"responses":"{\"Q0\":\"rock\"}","trial_type":"survey-text","trial_index":34,"time_elapsed":150753,"internal_node_id":"0.0-34.0-0.0","participant_id":"A2UX0UXTM5AJQ1"},{"rt":null,"stimulus":"<p style=\"font-size: 48px;\">+</p>","key_press":null,"Name":"fixation","trial_type":"html-keyboard-response","trial_index":35,"time_elapsed":151254,"internal_node_id":"0.0-35.0","participant_id":"A2UX0UXTM5AJQ1"},{"rt":null,"stimulus":"stimuli/8.jpg","button_pressed":null,"name":"noRating","trial_type":"image-button-response","trial_index":36,"time_elapsed":156255,"internal_node_id":"0.0-36.0","participant_id":"A2UX0UXTM5AJQ1"},{"rt":2753,"stimulus":"stimuli/8.jpg","button_pressed":"0","name":"valence","trial_type":"image-button-response","trial_index":37,"time_elapsed":159009,"internal_node_id":"0.0-37.0","participant_id":"A2UX0UXTM5AJQ1"},{"rt":2038,"response":"15","name":"rating","trial_type":"image-slider-response","trial_index":38,"time_elapsed":161049,"internal_node_id":"0.0-38.0","participant_id":"A2UX0UXTM5AJQ1"},{"rt":774,"stimulus":"stimuli/8.jpg","button_pressed":"2","name":"emotionType","trial_type":"image-button-response","trial_index":39,"time_elapsed":161825,"internal_node_id":"0.0-39.0","participant_id":"A2UX0UXTM5AJQ1"},{"rt":null,"stimulus":"<p style=\"font-size: 48px;\">+</p>","key_press":null,"Name":"fixation","trial_type":"html-keyboard-response","trial_index":40,"time_elapsed":162326,"internal_node_id":"0.0-40.0","participant_id":"A2UX0UXTM5AJQ1"},{"rt":null,"stimulus":"stimuli/50.jpg","button_pressed":null,"name":"noRating","trial_type":"image-button-response","trial_index":41,"time_elapsed":167327,"internal_node_id":"0.0-41.0","participant_id":"A2UX0UXTM5AJQ1"},{"rt":1504,"stimulus":"stimuli/50.jpg","button_pressed":"0","name":"valence","trial_type":"image-button-response","trial_index":42,"time_elapsed":168833,"internal_node_id":"0.0-42.0","participant_id":"A2UX0UXTM5AJQ1"},{"rt":2540,"response":"33","name":"rating","trial_type":"image-slider-response","trial_index":43,"time_elapsed":171377,"internal_node_id":"0.0-43.0","participant_id":"A2UX0UXTM5AJQ1"},{"rt":2302,"stimulus":"stimuli/50.jpg","button_pressed":"0","name":"emotionType","trial_type":"image-button-response","trial_index":44,"time_elapsed":173681,"internal_node_id":"0.0-44.0","participant_id":"A2UX0UXTM5AJQ1"},{"rt":null,"stimulus":"<p style=\"font-size: 48px;\">+</p>","key_press":null,"Name":"fixation","trial_type":"html-keyboard-response","trial_index":45,"time_elapsed":174182,"internal_node_id":"0.0-45.0","participant_id":"A2UX0UXTM5AJQ1"},{"rt":null,"stimulus":"stimuli/68.jpg","button_pressed":null,"name":"noRating","trial_type":"image-button-response","trial_index":46,"time_elapsed":179183,"internal_node_id":"0.0-46.0","participant_id":"A2UX0UXTM5AJQ1"},{"rt":1505,"stimulus":"stimuli/68.jpg","button_pressed":"0","name":"valence","trial_type":"image-button-response","trial_index":47,"time_elapsed":180689,"internal_node_id":"0.0-47.0","participant_id":"A2UX0UXTM5AJQ1"},{"rt":2494,"response":"23","name":"rating","trial_type":"image-slider-response","trial_index":48,"time_elapsed":183185,"internal_node_id":"0.0-48.0","participant_id":"A2UX0UXTM5AJQ1"},{"rt":1278,"stimulus":"stimuli/68.jpg","button_pressed":"2","name":"emotionType","trial_type":"image-button-response","trial_index":49,"time_elapsed":184465,"internal_node_id":"0.0-49.0","participant_id":"A2UX0UXTM5AJQ1"},{"rt":null,"stimulus":"<p style=\"font-size: 48px;\">+</p>","key_press":null,"Name":"fixation","trial_type":"html-keyboard-response","trial_index":50,"time_elapsed":184966,"internal_node_id":"0.0-50.0","participant_id":"A2UX0UXTM5AJQ1"},{"rt":null,"stimulus":"stimuli/33.jpg","button_pressed":null,"name":"noRating","trial_type":"image-button-response","trial_index":51,"time_elapsed":189967,"internal_node_id":"0.0-51.0","participant_id":"A2UX0UXTM5AJQ1"},{"rt":1545,"stimulus":"stimuli/33.jpg","button_pressed":"0","name":"valence","trial_type":"image-button-response","trial_index":52,"time_elapsed":191513,"internal_node_id":"0.0-52.0","participant_id":"A2UX0UXTM5AJQ1"},{"rt":2438,"response":"14","name":"rating","trial_type":"image-slider-response","trial_index":53,"time_elapsed":193952,"internal_node_id":"0.0-53.0","participant_id":"A2UX0UXTM5AJQ1"},{"rt":1278,"stimulus":"stimuli/33.jpg","button_pressed":"2","name":"emotionType","trial_type":"image-button-response","trial_index":54,"time_elapsed":195233,"internal_node_id":"0.0-54.0","participant_id":"A2UX0UXTM5AJQ1"},{"rt":null,"stimulus":"<p style=\"font-size: 48px;\">+</p>","key_press":null,"Name":"fixation","trial_type":"html-keyboard-response","trial_index":55,"time_elapsed":196234,"internal_node_id":"0.0-55.0","participant_id":"A2UX0UXTM5AJQ1"},{"rt":null,"stimulus":"stimuli/5.jpg","button_pressed":null,"name":"noRating","trial_type":"image-button-response","trial_index":56,"time_elapsed":201235,"internal_node_id":"0.0-56.0","participant_id":"A2UX0UXTM5AJQ1"},{"rt":1533,"stimulus":"stimuli/5.jpg","button_pressed":"0","name":"valence","trial_type":"image-button-response","trial_index":57,"time_elapsed":202769,"internal_node_id":"0.0-57.0","participant_id":"A2UX0UXTM5AJQ1"},{"rt":1990,"response":"14","name":"rating","trial_type":"image-slider-response","trial_index":58,"time_elapsed":204761,"internal_node_id":"0.0-58.0","participant_id":"A2UX0UXTM5AJQ1"},{"rt":1326,"stimulus":"stimuli/5.jpg","button_pressed":"0","name":"emotionType","trial_type":"image-button-response","trial_index":59,"time_elapsed":206089,"internal_node_id":"0.0-59.0","participant_id":"A2UX0UXTM5AJQ1"},{"rt":3822,"responses":"{\"Q0\":\"sky\"}","trial_type":"survey-text","trial_index":60,"time_elapsed":209912,"internal_node_id":"0.0-60.0-0.0","participant_id":"A2UX0UXTM5AJQ1"},{"rt":null,"stimulus":"<p style=\"font-size: 48px;\">+</p>","key_press":null,"Name":"fixation","trial_type":"html-keyboard-response","trial_index":61,"time_elapsed":210413,"internal_node_id":"0.0-61.0","participant_id":"A2UX0UXTM5AJQ1"},{"rt":null,"stimulus":"stimuli/14.jpg","button_pressed":null,"name":"noRating","trial_type":"image-button-response","trial_index":62,"time_elapsed":215414,"internal_node_id":"0.0-62.0","participant_id":"A2UX0UXTM5AJQ1"},{"rt":2913,"stimulus":"stimuli/14.jpg","button_pressed":"0","name":"valence","trial_type":"image-button-response","trial_index":63,"time_elapsed":218328,"internal_node_id":"0.0-63.0","participant_id":"A2UX0UXTM5AJQ1"},{"rt":2142,"response":"15","name":"rating","trial_type":"image-slider-response","trial_index":64,"time_elapsed":220472,"internal_node_id":"0.0-64.0","participant_id":"A2UX0UXTM5AJQ1"},{"rt":1391,"stimulus":"stimuli/14.jpg","button_pressed":"2","name":"emotionType","trial_type":"image-button-response","trial_index":65,"time_elapsed":221865,"internal_node_id":"0.0-65.0","participant_id":"A2UX0UXTM5AJQ1"},{"rt":null,"stimulus":"<p style=\"font-size: 48px;\">+</p>","key_press":null,"Name":"fixation","trial_type":"html-keyboard-response","trial_index":66,"time_elapsed":222366,"internal_node_id":"0.0-66.0","participant_id":"A2UX0UXTM5AJQ1"},{"rt":null,"stimulus":"stimuli/11.jpg","button_pressed":null,"name":"noRating","trial_type":"image-button-response","trial_index":67,"time_elapsed":227367,"internal_node_id":"0.0-67.0","participant_id":"A2UX0UXTM5AJQ1"},{"rt":1687,"stimulus":"stimuli/11.jpg","button_pressed":"0","name":"valence","trial_type":"image-button-response","trial_index":68,"time_elapsed":229056,"internal_node_id":"0.0-68.0","participant_id":"A2UX0UXTM5AJQ1"},{"rt":2735,"response":"19","name":"rating","trial_type":"image-slider-response","trial_index":69,"time_elapsed":231792,"internal_node_id":"0.0-69.0","participant_id":"A2UX0UXTM5AJQ1"},{"rt":1215,"stimulus":"stimuli/11.jpg","button_pressed":"2","name":"emotionType","trial_type":"image-button-response","trial_index":70,"time_elapsed":233010,"internal_node_id":"0.0-70.0","participant_id":"A2UX0UXTM5AJQ1"},{"rt":null,"stimulus":"<p style=\"font-size: 48px;\">+</p>","key_press":null,"Name":"fixation","trial_type":"html-keyboard-response","trial_index":71,"time_elapsed":233510,"internal_node_id":"0.0-71.0","participant_id":"A2UX0UXTM5AJQ1"},{"rt":null,"stimulus":"stimuli/45.jpg","button_pressed":null,"name":"noRating","trial_type":"image-button-response","trial_index":72,"time_elapsed":238511,"internal_node_id":"0.0-72.0","participant_id":"A2UX0UXTM5AJQ1"},{"rt":2112,"stimulus":"stimuli/45.jpg","button_pressed":"0","name":"valence","trial_type":"image-button-response","trial_index":73,"time_elapsed":240624,"internal_node_id":"0.0-73.0","participant_id":"A2UX0UXTM5AJQ1"},{"rt":3271,"response":"17","name":"rating","trial_type":"image-slider-response","trial_index":74,"time_elapsed":243896,"internal_node_id":"0.0-74.0","participant_id":"A2UX0UXTM5AJQ1"},{"rt":1023,"stimulus":"stimuli/45.jpg","button_pressed":"2","name":"emotionType","trial_type":"image-button-response","trial_index":75,"time_elapsed":244921,"internal_node_id":"0.0-75.0","participant_id":"A2UX0UXTM5AJQ1"},{"rt":null,"stimulus":"<p style=\"font-size: 48px;\">+</p>","key_press":null,"Name":"fixation","trial_type":"html-keyboard-response","trial_index":76,"time_elapsed":246421,"internal_node_id":"0.0-76.0","participant_id":"A2UX0UXTM5AJQ1"},{"rt":null,"stimulus":"stimuli/22.jpg","button_pressed":null,"name":"noRating","trial_type":"image-button-response","trial_index":77,"time_elapsed":251422,"internal_node_id":"0.0-77.0","participant_id":"A2UX0UXTM5AJQ1"},{"rt":2201,"stimulus":"stimuli/22.jpg","button_pressed":"0","name":"valence","trial_type":"image-button-response","trial_index":78,"time_elapsed":253624,"internal_node_id":"0.0-78.0","participant_id":"A2UX0UXTM5AJQ1"},{"rt":2687,"response":"18","name":"rating","trial_type":"image-slider-response","trial_index":79,"time_elapsed":256312,"internal_node_id":"0.0-79.0","participant_id":"A2UX0UXTM5AJQ1"},{"rt":5255,"stimulus":"stimuli/22.jpg","button_pressed":"0","name":"emotionType","trial_type":"image-button-response","trial_index":80,"time_elapsed":261568,"internal_node_id":"0.0-80.0","participant_id":"A2UX0UXTM5AJQ1"},{"rt":null,"stimulus":"<p style=\"font-size: 48px;\">+</p>","key_press":null,"Name":"fixation","trial_type":"html-keyboard-response","trial_index":81,"time_elapsed":262570,"internal_node_id":"0.0-81.0","participant_id":"A2UX0UXTM5AJQ1"},{"rt":null,"stimulus":"stimuli/54.jpg","button_pressed":null,"name":"noRating","trial_type":"image-button-response","trial_index":82,"time_elapsed":267571,"internal_node_id":"0.0-82.0","participant_id":"A2UX0UXTM5AJQ1"},{"rt":1615,"stimulus":"stimuli/54.jpg","button_pressed":"0","name":"valence","trial_type":"image-button-response","trial_index":83,"time_elapsed":269187,"internal_node_id":"0.0-83.0","participant_id":"A2UX0UXTM5AJQ1"},{"rt":2276,"response":"17","name":"rating","trial_type":"image-slider-response","trial_index":84,"time_elapsed":271464,"internal_node_id":"0.0-84.0","participant_id":"A2UX0UXTM5AJQ1"},{"rt":1144,"stimulus":"stimuli/54.jpg","button_pressed":"0","name":"emotionType","trial_type":"image-button-response","trial_index":85,"time_elapsed":272611,"internal_node_id":"0.0-85.0","participant_id":"A2UX0UXTM5AJQ1"},{"rt":4324,"responses":"{\"Q0\":\"our\"}","trial_type":"survey-text","trial_index":86,"time_elapsed":276936,"internal_node_id":"0.0-86.0-0.0","participant_id":"A2UX0UXTM5AJQ1"},{"rt":null,"stimulus":"<p style=\"font-size: 48px;\">+</p>","key_press":null,"Name":"fixation","trial_type":"html-keyboard-response","trial_index":87,"time_elapsed":277437,"internal_node_id":"0.0-87.0","participant_id":"A2UX0UXTM5AJQ1"},{"rt":null,"stimulus":"stimuli/65.jpg","button_pressed":null,"name":"noRating","trial_type":"image-button-response","trial_index":88,"time_elapsed":282438,"internal_node_id":"0.0-88.0","participant_id":"A2UX0UXTM5AJQ1"},{"rt":2888,"stimulus":"stimuli/65.jpg","button_pressed":"0","name":"valence","trial_type":"image-button-response","trial_index":89,"time_elapsed":285326,"internal_node_id":"0.0-89.0","participant_id":"A2UX0UXTM5AJQ1"},{"rt":2721,"response":"16","name":"rating","trial_type":"image-slider-response","trial_index":90,"time_elapsed":288048,"internal_node_id":"0.0-90.0","participant_id":"A2UX0UXTM5AJQ1"},{"rt":3463,"stimulus":"stimuli/65.jpg","button_pressed":"2","name":"emotionType","trial_type":"image-button-response","trial_index":91,"time_elapsed":291512,"internal_node_id":"0.0-91.0","participant_id":"A2UX0UXTM5AJQ1"},{"rt":null,"stimulus":"<p style=\"font-size: 48px;\">+</p>","key_press":null,"Name":"fixation","trial_type":"html-keyboard-response","trial_index":92,"time_elapsed":292013,"internal_node_id":"0.0-92.0","participant_id":"A2UX0UXTM5AJQ1"},{"rt":null,"stimulus":"stimuli/4.jpg","button_pressed":null,"name":"noRating","trial_type":"image-button-response","trial_index":93,"time_elapsed":297014,"internal_node_id":"0.0-93.0","participant_id":"A2UX0UXTM5AJQ1"},{"rt":1234,"stimulus":"stimuli/4.jpg","button_pressed":"0","name":"valence","trial_type":"image-button-response","trial_index":94,"time_elapsed":298248,"internal_node_id":"0.0-94.0","participant_id":"A2UX0UXTM5AJQ1"},{"rt":1934,"response":"19","name":"rating","trial_type":"image-slider-response","trial_index":95,"time_elapsed":300184,"internal_node_id":"0.0-95.0","participant_id":"A2UX0UXTM5AJQ1"},{"rt":1143,"stimulus":"stimuli/4.jpg","button_pressed":"0","name":"emotionType","trial_type":"image-button-response","trial_index":96,"time_elapsed":301328,"internal_node_id":"0.0-96.0","participant_id":"A2UX0UXTM5AJQ1"},{"rt":null,"stimulus":"<p style=\"font-size: 48px;\">+</p>","key_press":null,"Name":"fixation","trial_type":"html-keyboard-response","trial_index":97,"time_elapsed":302329,"internal_node_id":"0.0-97.0","participant_id":"A2UX0UXTM5AJQ1"},{"rt":null,"stimulus":"stimuli/10.jpg","button_pressed":null,"name":"noRating","trial_type":"image-button-response","trial_index":98,"time_elapsed":307330,"internal_node_id":"0.0-98.0","participant_id":"A2UX0UXTM5AJQ1"},{"rt":1517,"stimulus":"stimuli/10.jpg","button_pressed":"0","name":"valence","trial_type":"image-button-response","trial_index":99,"time_elapsed":308848,"internal_node_id":"0.0-99.0","participant_id":"A2UX0UXTM5AJQ1"},{"rt":2543,"response":"18","name":"rating","trial_type":"image-slider-response","trial_index":100,"time_elapsed":311392,"internal_node_id":"0.0-100.0","participant_id":"A2UX0UXTM5AJQ1"},{"rt":1230,"stimulus":"stimuli/10.jpg","button_pressed":"2","name":"emotionType","trial_type":"image-button-response","trial_index":101,"time_elapsed":312624,"internal_node_id":"0.0-101.0","participant_id":"A2UX0UXTM5AJQ1"},{"rt":null,"stimulus":"<p style=\"font-size: 48px;\">+</p>","key_press":null,"Name":"fixation","trial_type":"html-keyboard-response","trial_index":102,"time_elapsed":313625,"internal_node_id":"0.0-102.0","participant_id":"A2UX0UXTM5AJQ1"},{"rt":null,"stimulus":"stimuli/63.jpg","button_pressed":null,"name":"noRating","trial_type":"image-button-response","trial_index":103,"time_elapsed":318626,"internal_node_id":"0.0-103.0","participant_id":"A2UX0UXTM5AJQ1"},{"rt":1141,"stimulus":"stimuli/63.jpg","button_pressed":"0","name":"valence","trial_type":"image-button-response","trial_index":104,"time_elapsed":319768,"internal_node_id":"0.0-104.0","participant_id":"A2UX0UXTM5AJQ1"},{"rt":2134,"response":"18","name":"rating","trial_type":"image-slider-response","trial_index":105,"time_elapsed":321904,"internal_node_id":"0.0-105.0","participant_id":"A2UX0UXTM5AJQ1"},{"rt":2590,"stimulus":"stimuli/63.jpg","button_pressed":"0","name":"emotionType","trial_type":"image-button-response","trial_index":106,"time_elapsed":324496,"internal_node_id":"0.0-106.0","participant_id":"A2UX0UXTM5AJQ1"},{"rt":null,"stimulus":"<p style=\"font-size: 48px;\">+</p>","key_press":null,"Name":"fixation","trial_type":"html-keyboard-response","trial_index":107,"time_elapsed":325497,"internal_node_id":"0.0-107.0","participant_id":"A2UX0UXTM5AJQ1"},{"rt":null,"stimulus":"stimuli/28.jpg","button_pressed":null,"name":"noRating","trial_type":"image-button-response","trial_index":108,"time_elapsed":330498,"internal_node_id":"0.0-108.0","participant_id":"A2UX0UXTM5AJQ1"},{"rt":1398,"stimulus":"stimuli/28.jpg","button_pressed":"0","name":"valence","trial_type":"image-button-response","trial_index":109,"time_elapsed":331896,"internal_node_id":"0.0-109.0","participant_id":"A2UX0UXTM5AJQ1"},{"rt":2318,"response":"16","name":"rating","trial_type":"image-slider-response","trial_index":110,"time_elapsed":334216,"internal_node_id":"0.0-110.0","participant_id":"A2UX0UXTM5AJQ1"},{"rt":1167,"stimulus":"stimuli/28.jpg","button_pressed":"0","name":"emotionType","trial_type":"image-button-response","trial_index":111,"time_elapsed":335384,"internal_node_id":"0.0-111.0","participant_id":"A2UX0UXTM5AJQ1"},{"rt":4782,"responses":"{\"Q0\":\"course\"}","trial_type":"survey-text","trial_index":112,"time_elapsed":340168,"internal_node_id":"0.0-112.0-0.0","participant_id":"A2UX0UXTM5AJQ1"},{"rt":null,"stimulus":"<p style=\"font-size: 48px;\">+</p>","key_press":null,"Name":"fixation","trial_type":"html-keyboard-response","trial_index":113,"time_elapsed":340669,"internal_node_id":"0.0-113.0","participant_id":"A2UX0UXTM5AJQ1"},{"rt":null,"stimulus":"stimuli/35.jpg","button_pressed":null,"name":"noRating","trial_type":"image-button-response","trial_index":114,"time_elapsed":345670,"internal_node_id":"0.0-114.0","participant_id":"A2UX0UXTM5AJQ1"},{"rt":1537,"stimulus":"stimuli/35.jpg","button_pressed":"0","name":"valence","trial_type":"image-button-response","trial_index":115,"time_elapsed":347208,"internal_node_id":"0.0-115.0","participant_id":"A2UX0UXTM5AJQ1"},{"rt":3311,"response":"19","name":"rating","trial_type":"image-slider-response","trial_index":116,"time_elapsed":350520,"internal_node_id":"0.0-116.0","participant_id":"A2UX0UXTM5AJQ1"},{"rt":2174,"stimulus":"stimuli/35.jpg","button_pressed":"2","name":"emotionType","trial_type":"image-button-response","trial_index":117,"time_elapsed":352696,"internal_node_id":"0.0-117.0","participant_id":"A2UX0UXTM5AJQ1"},{"rt":null,"stimulus":"<p style=\"font-size: 48px;\">+</p>","key_press":null,"Name":"fixation","trial_type":"html-keyboard-response","trial_index":118,"time_elapsed":353697,"internal_node_id":"0.0-118.0","participant_id":"A2UX0UXTM5AJQ1"},{"rt":null,"stimulus":"stimuli/34.jpg","button_pressed":null,"name":"noRating","trial_type":"image-button-response","trial_index":119,"time_elapsed":358699,"internal_node_id":"0.0-119.0","participant_id":"A2UX0UXTM5AJQ1"},{"rt":1052,"stimulus":"stimuli/34.jpg","button_pressed":"0","name":"valence","trial_type":"image-button-response","trial_index":120,"time_elapsed":359752,"internal_node_id":"0.0-120.0","participant_id":"A2UX0UXTM5AJQ1"},{"rt":1846,"response":"19","name":"rating","trial_type":"image-slider-response","trial_index":121,"time_elapsed":361600,"internal_node_id":"0.0-121.0","participant_id":"A2UX0UXTM5AJQ1"},{"rt":895,"stimulus":"stimuli/34.jpg","button_pressed":"0","name":"emotionType","trial_type":"image-button-response","trial_index":122,"time_elapsed":362496,"internal_node_id":"0.0-122.0","participant_id":"A2UX0UXTM5AJQ1"},{"rt":null,"stimulus":"<p style=\"font-size: 48px;\">+</p>","key_press":null,"Name":"fixation","trial_type":"html-keyboard-response","trial_index":123,"time_elapsed":363497,"internal_node_id":"0.0-123.0","participant_id":"A2UX0UXTM5AJQ1"},{"rt":null,"stimulus":"stimuli/1.jpg","button_pressed":null,"name":"noRating","trial_type":"image-button-response","trial_index":124,"time_elapsed":368497,"internal_node_id":"0.0-124.0","participant_id":"A2UX0UXTM5AJQ1"},{"rt":1229,"stimulus":"stimuli/1.jpg","button_pressed":"0","name":"valence","trial_type":"image-button-response","trial_index":125,"time_elapsed":369728,"internal_node_id":"0.0-125.0","participant_id":"A2UX0UXTM5AJQ1"},{"rt":2342,"response":"16","name":"rating","trial_type":"image-slider-response","trial_index":126,"time_elapsed":372072,"internal_node_id":"0.0-126.0","participant_id":"A2UX0UXTM5AJQ1"},{"rt":1726,"stimulus":"stimuli/1.jpg","button_pressed":"0","name":"emotionType","trial_type":"image-button-response","trial_index":127,"time_elapsed":373800,"internal_node_id":"0.0-127.0","participant_id":"A2UX0UXTM5AJQ1"},{"rt":null,"stimulus":"<p style=\"font-size: 48px;\">+</p>","key_press":null,"Name":"fixation","trial_type":"html-keyboard-response","trial_index":128,"time_elapsed":374801,"internal_node_id":"0.0-128.0","participant_id":"A2UX0UXTM5AJQ1"},{"rt":null,"stimulus":"stimuli/49.jpg","button_pressed":null,"name":"noRating","trial_type":"image-button-response","trial_index":129,"time_elapsed":379801,"internal_node_id":"0.0-129.0","participant_id":"A2UX0UXTM5AJQ1"},{"rt":1093,"stimulus":"stimuli/49.jpg","button_pressed":"0","name":"valence","trial_type":"image-button-response","trial_index":130,"time_elapsed":380896,"internal_node_id":"0.0-130.0","participant_id":"A2UX0UXTM5AJQ1"},{"rt":2102,"response":"14","name":"rating","trial_type":"image-slider-response","trial_index":131,"time_elapsed":382999,"internal_node_id":"0.0-131.0","participant_id":"A2UX0UXTM5AJQ1"},{"rt":1616,"stimulus":"stimuli/49.jpg","button_pressed":"0","name":"emotionType","trial_type":"image-button-response","trial_index":132,"time_elapsed":384617,"internal_node_id":"0.0-132.0","participant_id":"A2UX0UXTM5AJQ1"},{"rt":null,"stimulus":"<p style=\"font-size: 48px;\">+</p>","key_press":null,"Name":"fixation","trial_type":"html-keyboard-response","trial_index":133,"time_elapsed":385618,"internal_node_id":"0.0-133.0","participant_id":"A2UX0UXTM5AJQ1"},{"rt":null,"stimulus":"stimuli/48.jpg","button_pressed":null,"name":"noRating","trial_type":"image-button-response","trial_index":134,"time_elapsed":390619,"internal_node_id":"0.0-134.0","participant_id":"A2UX0UXTM5AJQ1"},{"rt":1788,"stimulus":"stimuli/48.jpg","button_pressed":"0","name":"valence","trial_type":"image-button-response","trial_index":135,"time_elapsed":392408,"internal_node_id":"0.0-135.0","participant_id":"A2UX0UXTM5AJQ1"},{"rt":2654,"response":"18","name":"rating","trial_type":"image-slider-response","trial_index":136,"time_elapsed":395064,"internal_node_id":"0.0-136.0","participant_id":"A2UX0UXTM5AJQ1"},{"rt":2870,"stimulus":"stimuli/48.jpg","button_pressed":"0","name":"emotionType","trial_type":"image-button-response","trial_index":137,"time_elapsed":397936,"internal_node_id":"0.0-137.0","participant_id":"A2UX0UXTM5AJQ1"},{"rt":4271,"responses":"{\"Q0\":\"we\"}","trial_type":"survey-text","trial_index":138,"time_elapsed":402207,"internal_node_id":"0.0-138.0-0.0","participant_id":"A2UX0UXTM5AJQ1"},{"rt":null,"stimulus":"<p style=\"font-size: 48px;\">+</p>","key_press":null,"Name":"fixation","trial_type":"html-keyboard-response","trial_index":139,"time_elapsed":403708,"internal_node_id":"0.0-139.0","participant_id":"A2UX0UXTM5AJQ1"},{"rt":null,"stimulus":"stimuli/42.jpg","button_pressed":null,"name":"noRating","trial_type":"image-button-response","trial_index":140,"time_elapsed":408709,"internal_node_id":"0.0-140.0","participant_id":"A2UX0UXTM5AJQ1"},{"rt":1081,"stimulus":"stimuli/42.jpg","button_pressed":"2","name":"valence","trial_type":"image-button-response","trial_index":141,"time_elapsed":409792,"internal_node_id":"0.0-141.0","participant_id":"A2UX0UXTM5AJQ1"},{"rt":3167,"response":"11","name":"rating","trial_type":"image-slider-response","trial_index":142,"time_elapsed":412960,"internal_node_id":"0.0-142.0","participant_id":"A2UX0UXTM5AJQ1"},{"rt":958,"stimulus":"stimuli/42.jpg","button_pressed":"2","name":"emotionType","trial_type":"image-button-response","trial_index":143,"time_elapsed":413920,"internal_node_id":"0.0-143.0","participant_id":"A2UX0UXTM5AJQ1"},{"rt":null,"stimulus":"<p style=\"font-size: 48px;\">+</p>","key_press":null,"Name":"fixation","trial_type":"html-keyboard-response","trial_index":144,"time_elapsed":414420,"internal_node_id":"0.0-144.0","participant_id":"A2UX0UXTM5AJQ1"},{"rt":null,"stimulus":"stimuli/26.jpg","button_pressed":null,"name":"noRating","trial_type":"image-button-response","trial_index":145,"time_elapsed":419421,"internal_node_id":"0.0-145.0","participant_id":"A2UX0UXTM5AJQ1"},{"rt":1393,"stimulus":"stimuli/26.jpg","button_pressed":"0","name":"valence","trial_type":"image-button-response","trial_index":146,"time_elapsed":420816,"internal_node_id":"0.0-146.0","participant_id":"A2UX0UXTM5AJQ1"},{"rt":2022,"response":"17","name":"rating","trial_type":"image-slider-response","trial_index":147,"time_elapsed":422839,"internal_node_id":"0.0-147.0","participant_id":"A2UX0UXTM5AJQ1"},{"rt":1231,"stimulus":"stimuli/26.jpg","button_pressed":"0","name":"emotionType","trial_type":"image-button-response","trial_index":148,"time_elapsed":424072,"internal_node_id":"0.0-148.0","participant_id":"A2UX0UXTM5AJQ1"},{"rt":null,"stimulus":"<p style=\"font-size: 48px;\">+</p>","key_press":null,"Name":"fixation","trial_type":"html-keyboard-response","trial_index":149,"time_elapsed":425073,"internal_node_id":"0.0-149.0","participant_id":"A2UX0UXTM5AJQ1"},{"rt":null,"stimulus":"stimuli/41.jpg","button_pressed":null,"name":"noRating","trial_type":"image-button-response","trial_index":150,"time_elapsed":430073,"internal_node_id":"0.0-150.0","participant_id":"A2UX0UXTM5AJQ1"},{"rt":1365,"stimulus":"stimuli/41.jpg","button_pressed":"0","name":"valence","trial_type":"image-button-response","trial_index":151,"time_elapsed":431439,"internal_node_id":"0.0-151.0","participant_id":"A2UX0UXTM5AJQ1"},{"rt":2374,"response":"18","name":"rating","trial_type":"image-slider-response","trial_index":152,"time_elapsed":433816,"internal_node_id":"0.0-152.0","participant_id":"A2UX0UXTM5AJQ1"},{"rt":1534,"stimulus":"stimuli/41.jpg","button_pressed":"0","name":"emotionType","trial_type":"image-button-response","trial_index":153,"time_elapsed":435352,"internal_node_id":"0.0-153.0","participant_id":"A2UX0UXTM5AJQ1"},{"rt":null,"stimulus":"<p style=\"font-size: 48px;\">+</p>","key_press":null,"Name":"fixation","trial_type":"html-keyboard-response","trial_index":154,"time_elapsed":436353,"internal_node_id":"0.0-154.0","participant_id":"A2UX0UXTM5AJQ1"},{"rt":null,"stimulus":"stimuli/31.jpg","button_pressed":null,"name":"noRating","trial_type":"image-button-response","trial_index":155,"time_elapsed":441354,"internal_node_id":"0.0-155.0","participant_id":"A2UX0UXTM5AJQ1"},{"rt":1189,"stimulus":"stimuli/31.jpg","button_pressed":"0","name":"valence","trial_type":"image-button-response","trial_index":156,"time_elapsed":442544,"internal_node_id":"0.0-156.0","participant_id":"A2UX0UXTM5AJQ1"},{"rt":2053,"response":"15","name":"rating","trial_type":"image-slider-response","trial_index":157,"time_elapsed":444599,"internal_node_id":"0.0-157.0","participant_id":"A2UX0UXTM5AJQ1"},{"rt":1256,"stimulus":"stimuli/31.jpg","button_pressed":"0","name":"emotionType","trial_type":"image-button-response","trial_index":158,"time_elapsed":445857,"internal_node_id":"0.0-158.0","participant_id":"A2UX0UXTM5AJQ1"},{"rt":null,"stimulus":"<p style=\"font-size: 48px;\">+</p>","key_press":null,"Name":"fixation","trial_type":"html-keyboard-response","trial_index":159,"time_elapsed":447358,"internal_node_id":"0.0-159.0","participant_id":"A2UX0UXTM5AJQ1"},{"rt":null,"stimulus":"stimuli/47.jpg","button_pressed":null,"name":"noRating","trial_type":"image-button-response","trial_index":160,"time_elapsed":452359,"internal_node_id":"0.0-160.0","participant_id":"A2UX0UXTM5AJQ1"},{"rt":3664,"stimulus":"stimuli/47.jpg","button_pressed":"0","name":"valence","trial_type":"image-button-response","trial_index":161,"time_elapsed":456023,"internal_node_id":"0.0-161.0","participant_id":"A2UX0UXTM5AJQ1"},{"rt":2039,"response":"17","name":"rating","trial_type":"image-slider-response","trial_index":162,"time_elapsed":458063,"internal_node_id":"0.0-162.0","participant_id":"A2UX0UXTM5AJQ1"},{"rt":1127,"stimulus":"stimuli/47.jpg","button_pressed":"0","name":"emotionType","trial_type":"image-button-response","trial_index":163,"time_elapsed":459191,"internal_node_id":"0.0-163.0","participant_id":"A2UX0UXTM5AJQ1"},{"rt":3847,"stimulus":"stimuli/ins/Slide8.JPG","button_pressed":"0","trial_type":"image-button-response","trial_index":164,"time_elapsed":463039,"internal_node_id":"0.0-164.0","participant_id":"A2UX0UXTM5AJQ1"}]