[{"rt":8780,"responses":"{\"Q0\":\"A2YAYHZYI7M3HD\"}","trial_type":"survey-text","trial_index":0,"time_elapsed":8793,"internal_node_id":"0.0-0.0-0.0","participant_id":"A2YAYHZYI7M3HD"},{"rt":2988,"stimulus":"stimuli/ins/Slide1.JPG","button_pressed":"0","Name":"instructions","trial_type":"image-button-response","trial_index":1,"time_elapsed":11791,"internal_node_id":"0.0-1.0","participant_id":"A2YAYHZYI7M3HD"},{"rt":4029,"stimulus":"stimuli/ins/Slide2.JPG","button_pressed":"0","Name":"instructions","trial_type":"image-button-response","trial_index":2,"time_elapsed":15822,"internal_node_id":"0.0-2.0","participant_id":"A2YAYHZYI7M3HD"},{"rt":3033,"stimulus":"stimuli/ins/Slide3.JPG","button_pressed":"0","Name":"instructions","trial_type":"image-button-response","trial_index":3,"time_elapsed":18857,"internal_node_id":"0.0-3.0","participant_id":"A2YAYHZYI7M3HD"},{"rt":2862,"stimulus":"stimuli/ins/Slide4.JPG","button_pressed":"0","Name":"instructions","trial_type":"image-button-response","trial_index":4,"time_elapsed":21721,"internal_node_id":"0.0-4.0","participant_id":"A2YAYHZYI7M3HD"},{"rt":1512,"stimulus":"stimuli/ins/Slide5.JPG","button_pressed":"0","Name":"instructions","trial_type":"image-button-response","trial_index":5,"time_elapsed":23235,"internal_node_id":"0.0-5.0","participant_id":"A2YAYHZYI7M3HD"},{"rt":6653,"stimulus":"stimuli/ins/Slide6.JPG","button_pressed":"0","Name":"instructions","trial_type":"image-button-response","trial_index":6,"time_elapsed":29891,"internal_node_id":"0.0-6.0","participant_id":"A2YAYHZYI7M3HD"},{"rt":3592,"stimulus":"stimuli/ins/Slide7.JPG","button_pressed":"0","Name":"instructions","trial_type":"image-button-response","trial_index":7,"time_elapsed":33485,"internal_node_id":"0.0-7.0","participant_id":"A2YAYHZYI7M3HD"},{"rt":5024,"responses":"{\"Q0\":\"but\"}","trial_type":"survey-text","trial_index":8,"time_elapsed":38513,"internal_node_id":"0.0-8.0-0.0","participant_id":"A2YAYHZYI7M3HD"},{"rt":null,"stimulus":"<p style=\"font-size: 48px;\">+</p>","key_press":null,"Name":"fixation","trial_type":"html-keyboard-response","trial_index":9,"time_elapsed":39520,"internal_node_id":"0.0-9.0","participant_id":"A2YAYHZYI7M3HD"},{"rt":null,"stimulus":"stimuli/68.jpg","button_pressed":null,"name":"noRating","trial_type":"image-button-response","trial_index":10,"time_elapsed":44523,"internal_node_id":"0.0-10.0","participant_id":"A2YAYHZYI7M3HD"},{"rt":1700,"stimulus":"stimuli/68.jpg","button_pressed":"0","name":"valence","trial_type":"image-button-response","trial_index":11,"time_elapsed":46226,"internal_node_id":"0.0-11.0","participant_id":"A2YAYHZYI7M3HD"},{"rt":3476,"response":"71","name":"rating","trial_type":"image-slider-response","trial_index":12,"time_elapsed":49708,"internal_node_id":"0.0-12.0","participant_id":"A2YAYHZYI7M3HD"},{"rt":2153,"stimulus":"stimuli/68.jpg","button_pressed":"0","name":"emotionType","trial_type":"image-button-response","trial_index":13,"time_elapsed":51866,"internal_node_id":"0.0-13.0","participant_id":"A2YAYHZYI7M3HD"},{"rt":null,"stimulus":"<p style=\"font-size: 48px;\">+</p>","key_press":null,"Name":"fixation","trial_type":"html-keyboard-response","trial_index":14,"time_elapsed":52368,"internal_node_id":"0.0-14.0","participant_id":"A2YAYHZYI7M3HD"},{"rt":null,"stimulus":"stimuli/29.jpg","button_pressed":null,"name":"noRating","trial_type":"image-button-response","trial_index":15,"time_elapsed":57372,"internal_node_id":"0.0-15.0","participant_id":"A2YAYHZYI7M3HD"},{"rt":1322,"stimulus":"stimuli/29.jpg","button_pressed":"0","name":"valence","trial_type":"image-button-response","trial_index":16,"time_elapsed":58698,"internal_node_id":"0.0-16.0","participant_id":"A2YAYHZYI7M3HD"},{"rt":3016,"response":"85","name":"rating","trial_type":"image-slider-response","trial_index":17,"time_elapsed":61719,"internal_node_id":"0.0-17.0","participant_id":"A2YAYHZYI7M3HD"},{"rt":1081,"stimulus":"stimuli/29.jpg","button_pressed":"0","name":"emotionType","trial_type":"image-button-response","trial_index":18,"time_elapsed":62805,"internal_node_id":"0.0-18.0","participant_id":"A2YAYHZYI7M3HD"},{"rt":null,"stimulus":"<p style=\"font-size: 48px;\">+</p>","key_press":null,"Name":"fixation","trial_type":"html-keyboard-response","trial_index":19,"time_elapsed":64308,"internal_node_id":"0.0-19.0","participant_id":"A2YAYHZYI7M3HD"},{"rt":null,"stimulus":"stimuli/37.jpg","button_pressed":null,"name":"noRating","trial_type":"image-button-response","trial_index":20,"time_elapsed":69312,"internal_node_id":"0.0-20.0","participant_id":"A2YAYHZYI7M3HD"},{"rt":1617,"stimulus":"stimuli/37.jpg","button_pressed":"0","name":"valence","trial_type":"image-button-response","trial_index":21,"time_elapsed":70931,"internal_node_id":"0.0-21.0","participant_id":"A2YAYHZYI7M3HD"},{"rt":3134,"response":"91","name":"rating","trial_type":"image-slider-response","trial_index":22,"time_elapsed":74069,"internal_node_id":"0.0-22.0","participant_id":"A2YAYHZYI7M3HD"},{"rt":2399,"stimulus":"stimuli/37.jpg","button_pressed":"0","name":"emotionType","trial_type":"image-button-response","trial_index":23,"time_elapsed":76472,"internal_node_id":"0.0-23.0","participant_id":"A2YAYHZYI7M3HD"},{"rt":null,"stimulus":"<p style=\"font-size: 48px;\">+</p>","key_press":null,"Name":"fixation","trial_type":"html-keyboard-response","trial_index":24,"time_elapsed":77476,"internal_node_id":"0.0-24.0","participant_id":"A2YAYHZYI7M3HD"},{"rt":null,"stimulus":"stimuli/69.jpg","button_pressed":null,"name":"noRating","trial_type":"image-button-response","trial_index":25,"time_elapsed":82479,"internal_node_id":"0.0-25.0","participant_id":"A2YAYHZYI7M3HD"},{"rt":1803,"stimulus":"stimuli/69.jpg","button_pressed":"0","name":"valence","trial_type":"image-button-response","trial_index":26,"time_elapsed":84285,"internal_node_id":"0.0-26.0","participant_id":"A2YAYHZYI7M3HD"},{"rt":2384,"response":"82","name":"rating","trial_type":"image-slider-response","trial_index":27,"time_elapsed":86672,"internal_node_id":"0.0-27.0","participant_id":"A2YAYHZYI7M3HD"},{"rt":1431,"stimulus":"stimuli/69.jpg","button_pressed":"0","name":"emotionType","trial_type":"image-button-response","trial_index":28,"time_elapsed":88106,"internal_node_id":"0.0-28.0","participant_id":"A2YAYHZYI7M3HD"},{"rt":null,"stimulus":"<p style=\"font-size: 48px;\">+</p>","key_press":null,"Name":"fixation","trial_type":"html-keyboard-response","trial_index":29,"time_elapsed":88608,"internal_node_id":"0.0-29.0","participant_id":"A2YAYHZYI7M3HD"},{"rt":null,"stimulus":"stimuli/32.jpg","button_pressed":null,"name":"noRating","trial_type":"image-button-response","trial_index":30,"time_elapsed":93611,"internal_node_id":"0.0-30.0","participant_id":"A2YAYHZYI7M3HD"},{"rt":1741,"stimulus":"stimuli/32.jpg","button_pressed":"0","name":"valence","trial_type":"image-button-response","trial_index":31,"time_elapsed":95355,"internal_node_id":"0.0-31.0","participant_id":"A2YAYHZYI7M3HD"},{"rt":2558,"response":"79","name":"rating","trial_type":"image-slider-response","trial_index":32,"time_elapsed":97916,"internal_node_id":"0.0-32.0","participant_id":"A2YAYHZYI7M3HD"},{"rt":1534,"stimulus":"stimuli/32.jpg","button_pressed":"0","name":"emotionType","trial_type":"image-button-response","trial_index":33,"time_elapsed":99453,"internal_node_id":"0.0-33.0","participant_id":"A2YAYHZYI7M3HD"},{"rt":4356,"responses":"{\"Q0\":\"rock\"}","trial_type":"survey-text","trial_index":34,"time_elapsed":103814,"internal_node_id":"0.0-34.0-0.0","participant_id":"A2YAYHZYI7M3HD"},{"rt":null,"stimulus":"<p style=\"font-size: 48px;\">+</p>","key_press":null,"Name":"fixation","trial_type":"html-keyboard-response","trial_index":35,"time_elapsed":104319,"internal_node_id":"0.0-35.0","participant_id":"A2YAYHZYI7M3HD"},{"rt":null,"stimulus":"stimuli/34.jpg","button_pressed":null,"name":"noRating","trial_type":"image-button-response","trial_index":36,"time_elapsed":109323,"internal_node_id":"0.0-36.0","participant_id":"A2YAYHZYI7M3HD"},{"rt":2021,"stimulus":"stimuli/34.jpg","button_pressed":"0","name":"valence","trial_type":"image-button-response","trial_index":37,"time_elapsed":111348,"internal_node_id":"0.0-37.0","participant_id":"A2YAYHZYI7M3HD"},{"rt":2704,"response":"89","name":"rating","trial_type":"image-slider-response","trial_index":38,"time_elapsed":114055,"internal_node_id":"0.0-38.0","participant_id":"A2YAYHZYI7M3HD"},{"rt":1215,"stimulus":"stimuli/34.jpg","button_pressed":"0","name":"emotionType","trial_type":"image-button-response","trial_index":39,"time_elapsed":115274,"internal_node_id":"0.0-39.0","participant_id":"A2YAYHZYI7M3HD"},{"rt":null,"stimulus":"<p style=\"font-size: 48px;\">+</p>","key_press":null,"Name":"fixation","trial_type":"html-keyboard-response","trial_index":40,"time_elapsed":115777,"internal_node_id":"0.0-40.0","participant_id":"A2YAYHZYI7M3HD"},{"rt":null,"stimulus":"stimuli/30.jpg","button_pressed":null,"name":"noRating","trial_type":"image-button-response","trial_index":41,"time_elapsed":120780,"internal_node_id":"0.0-41.0","participant_id":"A2YAYHZYI7M3HD"},{"rt":1580,"stimulus":"stimuli/30.jpg","button_pressed":"0","name":"valence","trial_type":"image-button-response","trial_index":42,"time_elapsed":122364,"internal_node_id":"0.0-42.0","participant_id":"A2YAYHZYI7M3HD"},{"rt":2890,"response":"67","name":"rating","trial_type":"image-slider-response","trial_index":43,"time_elapsed":125257,"internal_node_id":"0.0-43.0","participant_id":"A2YAYHZYI7M3HD"},{"rt":1643,"stimulus":"stimuli/30.jpg","button_pressed":"0","name":"emotionType","trial_type":"image-button-response","trial_index":44,"time_elapsed":126904,"internal_node_id":"0.0-44.0","participant_id":"A2YAYHZYI7M3HD"},{"rt":null,"stimulus":"<p style=\"font-size: 48px;\">+</p>","key_press":null,"Name":"fixation","trial_type":"html-keyboard-response","trial_index":45,"time_elapsed":127408,"internal_node_id":"0.0-45.0","participant_id":"A2YAYHZYI7M3HD"},{"rt":null,"stimulus":"stimuli/3.jpg","button_pressed":null,"name":"noRating","trial_type":"image-button-response","trial_index":46,"time_elapsed":132411,"internal_node_id":"0.0-46.0","participant_id":"A2YAYHZYI7M3HD"},{"rt":1477,"stimulus":"stimuli/3.jpg","button_pressed":"0","name":"valence","trial_type":"image-button-response","trial_index":47,"time_elapsed":133891,"internal_node_id":"0.0-47.0","participant_id":"A2YAYHZYI7M3HD"},{"rt":2086,"response":"63","name":"rating","trial_type":"image-slider-response","trial_index":48,"time_elapsed":135982,"internal_node_id":"0.0-48.0","participant_id":"A2YAYHZYI7M3HD"},{"rt":1288,"stimulus":"stimuli/3.jpg","button_pressed":"0","name":"emotionType","trial_type":"image-button-response","trial_index":49,"time_elapsed":137272,"internal_node_id":"0.0-49.0","participant_id":"A2YAYHZYI7M3HD"},{"rt":null,"stimulus":"<p style=\"font-size: 48px;\">+</p>","key_press":null,"Name":"fixation","trial_type":"html-keyboard-response","trial_index":50,"time_elapsed":138276,"internal_node_id":"0.0-50.0","participant_id":"A2YAYHZYI7M3HD"},{"rt":null,"stimulus":"stimuli/40.jpg","button_pressed":null,"name":"noRating","trial_type":"image-button-response","trial_index":51,"time_elapsed":143278,"internal_node_id":"0.0-51.0","participant_id":"A2YAYHZYI7M3HD"},{"rt":1201,"stimulus":"stimuli/40.jpg","button_pressed":"1","name":"valence","trial_type":"image-button-response","trial_index":52,"time_elapsed":144483,"internal_node_id":"0.0-52.0","participant_id":"A2YAYHZYI7M3HD"},{"rt":2687,"response":"10","name":"rating","trial_type":"image-slider-response","trial_index":53,"time_elapsed":147174,"internal_node_id":"0.0-53.0","participant_id":"A2YAYHZYI7M3HD"},{"rt":4403,"stimulus":"stimuli/40.jpg","button_pressed":"2","name":"emotionType","trial_type":"image-button-response","trial_index":54,"time_elapsed":151583,"internal_node_id":"0.0-54.0","participant_id":"A2YAYHZYI7M3HD"},{"rt":null,"stimulus":"<p style=\"font-size: 48px;\">+</p>","key_press":null,"Name":"fixation","trial_type":"html-keyboard-response","trial_index":55,"time_elapsed":152588,"internal_node_id":"0.0-55.0","participant_id":"A2YAYHZYI7M3HD"},{"rt":null,"stimulus":"stimuli/56.jpg","button_pressed":null,"name":"noRating","trial_type":"image-button-response","trial_index":56,"time_elapsed":157591,"internal_node_id":"0.0-56.0","participant_id":"A2YAYHZYI7M3HD"},{"rt":1630,"stimulus":"stimuli/56.jpg","button_pressed":"0","name":"valence","trial_type":"image-button-response","trial_index":57,"time_elapsed":159223,"internal_node_id":"0.0-57.0","participant_id":"A2YAYHZYI7M3HD"},{"rt":3162,"response":"75","name":"rating","trial_type":"image-slider-response","trial_index":58,"time_elapsed":162387,"internal_node_id":"0.0-58.0","participant_id":"A2YAYHZYI7M3HD"},{"rt":999,"stimulus":"stimuli/56.jpg","button_pressed":"0","name":"emotionType","trial_type":"image-button-response","trial_index":59,"time_elapsed":163390,"internal_node_id":"0.0-59.0","participant_id":"A2YAYHZYI7M3HD"},{"rt":3301,"responses":"{\"Q0\":\"sky\"}","trial_type":"survey-text","trial_index":60,"time_elapsed":166693,"internal_node_id":"0.0-60.0-0.0","participant_id":"A2YAYHZYI7M3HD"},{"rt":null,"stimulus":"<p style=\"font-size: 48px;\">+</p>","key_press":null,"Name":"fixation","trial_type":"html-keyboard-response","trial_index":61,"time_elapsed":167697,"internal_node_id":"0.0-61.0","participant_id":"A2YAYHZYI7M3HD"},{"rt":null,"stimulus":"stimuli/41.jpg","button_pressed":null,"name":"noRating","trial_type":"image-button-response","trial_index":62,"time_elapsed":172700,"internal_node_id":"0.0-62.0","participant_id":"A2YAYHZYI7M3HD"},{"rt":1355,"stimulus":"stimuli/41.jpg","button_pressed":"0","name":"valence","trial_type":"image-button-response","trial_index":63,"time_elapsed":174058,"internal_node_id":"0.0-63.0","participant_id":"A2YAYHZYI7M3HD"},{"rt":2131,"response":"69","name":"rating","trial_type":"image-slider-response","trial_index":64,"time_elapsed":176193,"internal_node_id":"0.0-64.0","participant_id":"A2YAYHZYI7M3HD"},{"rt":951,"stimulus":"stimuli/41.jpg","button_pressed":"0","name":"emotionType","trial_type":"image-button-response","trial_index":65,"time_elapsed":177150,"internal_node_id":"0.0-65.0","participant_id":"A2YAYHZYI7M3HD"},{"rt":null,"stimulus":"<p style=\"font-size: 48px;\">+</p>","key_press":null,"Name":"fixation","trial_type":"html-keyboard-response","trial_index":66,"time_elapsed":178652,"internal_node_id":"0.0-66.0","participant_id":"A2YAYHZYI7M3HD"},{"rt":null,"stimulus":"stimuli/24.jpg","button_pressed":null,"name":"noRating","trial_type":"image-button-response","trial_index":67,"time_elapsed":183656,"internal_node_id":"0.0-67.0","participant_id":"A2YAYHZYI7M3HD"},{"rt":1792,"stimulus":"stimuli/24.jpg","button_pressed":"0","name":"valence","trial_type":"image-button-response","trial_index":68,"time_elapsed":185455,"internal_node_id":"0.0-68.0","participant_id":"A2YAYHZYI7M3HD"},{"rt":2348,"response":"77","name":"rating","trial_type":"image-slider-response","trial_index":69,"time_elapsed":187806,"internal_node_id":"0.0-69.0","participant_id":"A2YAYHZYI7M3HD"},{"rt":1163,"stimulus":"stimuli/24.jpg","button_pressed":"0","name":"emotionType","trial_type":"image-button-response","trial_index":70,"time_elapsed":188975,"internal_node_id":"0.0-70.0","participant_id":"A2YAYHZYI7M3HD"},{"rt":null,"stimulus":"<p style=\"font-size: 48px;\">+</p>","key_press":null,"Name":"fixation","trial_type":"html-keyboard-response","trial_index":71,"time_elapsed":189979,"internal_node_id":"0.0-71.0","participant_id":"A2YAYHZYI7M3HD"},{"rt":null,"stimulus":"stimuli/12.jpg","button_pressed":null,"name":"noRating","trial_type":"image-button-response","trial_index":72,"time_elapsed":194982,"internal_node_id":"0.0-72.0","participant_id":"A2YAYHZYI7M3HD"},{"rt":1171,"stimulus":"stimuli/12.jpg","button_pressed":"0","name":"valence","trial_type":"image-button-response","trial_index":73,"time_elapsed":196155,"internal_node_id":"0.0-73.0","participant_id":"A2YAYHZYI7M3HD"},{"rt":2074,"response":"70","name":"rating","trial_type":"image-slider-response","trial_index":74,"time_elapsed":198232,"internal_node_id":"0.0-74.0","participant_id":"A2YAYHZYI7M3HD"},{"rt":1152,"stimulus":"stimuli/12.jpg","button_pressed":"0","name":"emotionType","trial_type":"image-button-response","trial_index":75,"time_elapsed":199388,"internal_node_id":"0.0-75.0","participant_id":"A2YAYHZYI7M3HD"},{"rt":null,"stimulus":"<p style=\"font-size: 48px;\">+</p>","key_press":null,"Name":"fixation","trial_type":"html-keyboard-response","trial_index":76,"time_elapsed":200890,"internal_node_id":"0.0-76.0","participant_id":"A2YAYHZYI7M3HD"},{"rt":null,"stimulus":"stimuli/58.jpg","button_pressed":null,"name":"noRating","trial_type":"image-button-response","trial_index":77,"time_elapsed":205892,"internal_node_id":"0.0-77.0","participant_id":"A2YAYHZYI7M3HD"},{"rt":1355,"stimulus":"stimuli/58.jpg","button_pressed":"0","name":"valence","trial_type":"image-button-response","trial_index":78,"time_elapsed":207250,"internal_node_id":"0.0-78.0","participant_id":"A2YAYHZYI7M3HD"},{"rt":2617,"response":"73","name":"rating","trial_type":"image-slider-response","trial_index":79,"time_elapsed":209871,"internal_node_id":"0.0-79.0","participant_id":"A2YAYHZYI7M3HD"},{"rt":1095,"stimulus":"stimuli/58.jpg","button_pressed":"0","name":"emotionType","trial_type":"image-button-response","trial_index":80,"time_elapsed":210970,"internal_node_id":"0.0-80.0","participant_id":"A2YAYHZYI7M3HD"},{"rt":null,"stimulus":"<p style=\"font-size: 48px;\">+</p>","key_press":null,"Name":"fixation","trial_type":"html-keyboard-response","trial_index":81,"time_elapsed":212474,"internal_node_id":"0.0-81.0","participant_id":"A2YAYHZYI7M3HD"},{"rt":null,"stimulus":"stimuli/17.jpg","button_pressed":null,"name":"noRating","trial_type":"image-button-response","trial_index":82,"time_elapsed":217475,"internal_node_id":"0.0-82.0","participant_id":"A2YAYHZYI7M3HD"},{"rt":1445,"stimulus":"stimuli/17.jpg","button_pressed":"0","name":"valence","trial_type":"image-button-response","trial_index":83,"time_elapsed":218923,"internal_node_id":"0.0-83.0","participant_id":"A2YAYHZYI7M3HD"},{"rt":2393,"response":"61","name":"rating","trial_type":"image-slider-response","trial_index":84,"time_elapsed":221319,"internal_node_id":"0.0-84.0","participant_id":"A2YAYHZYI7M3HD"},{"rt":1154,"stimulus":"stimuli/17.jpg","button_pressed":"0","name":"emotionType","trial_type":"image-button-response","trial_index":85,"time_elapsed":222477,"internal_node_id":"0.0-85.0","participant_id":"A2YAYHZYI7M3HD"},{"rt":3780,"responses":"{\"Q0\":\"our\"}","trial_type":"survey-text","trial_index":86,"time_elapsed":226260,"internal_node_id":"0.0-86.0-0.0","participant_id":"A2YAYHZYI7M3HD"},{"rt":null,"stimulus":"<p style=\"font-size: 48px;\">+</p>","key_press":null,"Name":"fixation","trial_type":"html-keyboard-response","trial_index":87,"time_elapsed":226764,"internal_node_id":"0.0-87.0","participant_id":"A2YAYHZYI7M3HD"},{"rt":null,"stimulus":"stimuli/7.jpg","button_pressed":null,"name":"noRating","trial_type":"image-button-response","trial_index":88,"time_elapsed":231767,"internal_node_id":"0.0-88.0","participant_id":"A2YAYHZYI7M3HD"},{"rt":1026,"stimulus":"stimuli/7.jpg","button_pressed":"0","name":"valence","trial_type":"image-button-response","trial_index":89,"time_elapsed":232796,"internal_node_id":"0.0-89.0","participant_id":"A2YAYHZYI7M3HD"},{"rt":2266,"response":"56","name":"rating","trial_type":"image-slider-response","trial_index":90,"time_elapsed":235064,"internal_node_id":"0.0-90.0","participant_id":"A2YAYHZYI7M3HD"},{"rt":1220,"stimulus":"stimuli/7.jpg","button_pressed":"0","name":"emotionType","trial_type":"image-button-response","trial_index":91,"time_elapsed":236287,"internal_node_id":"0.0-91.0","participant_id":"A2YAYHZYI7M3HD"},{"rt":null,"stimulus":"<p style=\"font-size: 48px;\">+</p>","key_press":null,"Name":"fixation","trial_type":"html-keyboard-response","trial_index":92,"time_elapsed":236789,"internal_node_id":"0.0-92.0","participant_id":"A2YAYHZYI7M3HD"},{"rt":null,"stimulus":"stimuli/59.jpg","button_pressed":null,"name":"noRating","trial_type":"image-button-response","trial_index":93,"time_elapsed":241794,"internal_node_id":"0.0-93.0","participant_id":"A2YAYHZYI7M3HD"},{"rt":1346,"stimulus":"stimuli/59.jpg","button_pressed":"0","name":"valence","trial_type":"image-button-response","trial_index":94,"time_elapsed":243143,"internal_node_id":"0.0-94.0","participant_id":"A2YAYHZYI7M3HD"},{"rt":2424,"response":"60","name":"rating","trial_type":"image-slider-response","trial_index":95,"time_elapsed":245571,"internal_node_id":"0.0-95.0","participant_id":"A2YAYHZYI7M3HD"},{"rt":1070,"stimulus":"stimuli/59.jpg","button_pressed":"0","name":"emotionType","trial_type":"image-button-response","trial_index":96,"time_elapsed":246644,"internal_node_id":"0.0-96.0","participant_id":"A2YAYHZYI7M3HD"},{"rt":null,"stimulus":"<p style=\"font-size: 48px;\">+</p>","key_press":null,"Name":"fixation","trial_type":"html-keyboard-response","trial_index":97,"time_elapsed":247146,"internal_node_id":"0.0-97.0","participant_id":"A2YAYHZYI7M3HD"},{"rt":null,"stimulus":"stimuli/21.jpg","button_pressed":null,"name":"noRating","trial_type":"image-button-response","trial_index":98,"time_elapsed":252149,"internal_node_id":"0.0-98.0","participant_id":"A2YAYHZYI7M3HD"},{"rt":1291,"stimulus":"stimuli/21.jpg","button_pressed":"0","name":"valence","trial_type":"image-button-response","trial_index":99,"time_elapsed":253444,"internal_node_id":"0.0-99.0","participant_id":"A2YAYHZYI7M3HD"},{"rt":2938,"response":"63","name":"rating","trial_type":"image-slider-response","trial_index":100,"time_elapsed":256385,"internal_node_id":"0.0-100.0","participant_id":"A2YAYHZYI7M3HD"},{"rt":1121,"stimulus":"stimuli/21.jpg","button_pressed":"0","name":"emotionType","trial_type":"image-button-response","trial_index":101,"time_elapsed":257508,"internal_node_id":"0.0-101.0","participant_id":"A2YAYHZYI7M3HD"},{"rt":null,"stimulus":"<p style=\"font-size: 48px;\">+</p>","key_press":null,"Name":"fixation","trial_type":"html-keyboard-response","trial_index":102,"time_elapsed":258017,"internal_node_id":"0.0-102.0","participant_id":"A2YAYHZYI7M3HD"},{"rt":null,"stimulus":"stimuli/2.jpg","button_pressed":null,"name":"noRating","trial_type":"image-button-response","trial_index":103,"time_elapsed":263020,"internal_node_id":"0.0-103.0","participant_id":"A2YAYHZYI7M3HD"},{"rt":975,"stimulus":"stimuli/2.jpg","button_pressed":"0","name":"valence","trial_type":"image-button-response","trial_index":104,"time_elapsed":263997,"internal_node_id":"0.0-104.0","participant_id":"A2YAYHZYI7M3HD"},{"rt":2190,"response":"56","name":"rating","trial_type":"image-slider-response","trial_index":105,"time_elapsed":266190,"internal_node_id":"0.0-105.0","participant_id":"A2YAYHZYI7M3HD"},{"rt":1405,"stimulus":"stimuli/2.jpg","button_pressed":"0","name":"emotionType","trial_type":"image-button-response","trial_index":106,"time_elapsed":267600,"internal_node_id":"0.0-106.0","participant_id":"A2YAYHZYI7M3HD"},{"rt":null,"stimulus":"<p style=\"font-size: 48px;\">+</p>","key_press":null,"Name":"fixation","trial_type":"html-keyboard-response","trial_index":107,"time_elapsed":269102,"internal_node_id":"0.0-107.0","participant_id":"A2YAYHZYI7M3HD"},{"rt":null,"stimulus":"stimuli/49.jpg","button_pressed":null,"name":"noRating","trial_type":"image-button-response","trial_index":108,"time_elapsed":274104,"internal_node_id":"0.0-108.0","participant_id":"A2YAYHZYI7M3HD"},{"rt":1046,"stimulus":"stimuli/49.jpg","button_pressed":"0","name":"valence","trial_type":"image-button-response","trial_index":109,"time_elapsed":275153,"internal_node_id":"0.0-109.0","participant_id":"A2YAYHZYI7M3HD"},{"rt":2217,"response":"51","name":"rating","trial_type":"image-slider-response","trial_index":110,"time_elapsed":277373,"internal_node_id":"0.0-110.0","participant_id":"A2YAYHZYI7M3HD"},{"rt":1047,"stimulus":"stimuli/49.jpg","button_pressed":"0","name":"emotionType","trial_type":"image-button-response","trial_index":111,"time_elapsed":278423,"internal_node_id":"0.0-111.0","participant_id":"A2YAYHZYI7M3HD"},{"rt":4128,"responses":"{\"Q0\":\"course\"}","trial_type":"survey-text","trial_index":112,"time_elapsed":282553,"internal_node_id":"0.0-112.0-0.0","participant_id":"A2YAYHZYI7M3HD"},{"rt":null,"stimulus":"<p style=\"font-size: 48px;\">+</p>","key_press":null,"Name":"fixation","trial_type":"html-keyboard-response","trial_index":113,"time_elapsed":283557,"internal_node_id":"0.0-113.0","participant_id":"A2YAYHZYI7M3HD"},{"rt":null,"stimulus":"stimuli/22.jpg","button_pressed":null,"name":"noRating","trial_type":"image-button-response","trial_index":114,"time_elapsed":288560,"internal_node_id":"0.0-114.0","participant_id":"A2YAYHZYI7M3HD"},{"rt":1836,"stimulus":"stimuli/22.jpg","button_pressed":"0","name":"valence","trial_type":"image-button-response","trial_index":115,"time_elapsed":290398,"internal_node_id":"0.0-115.0","participant_id":"A2YAYHZYI7M3HD"},{"rt":2318,"response":"71","name":"rating","trial_type":"image-slider-response","trial_index":116,"time_elapsed":292718,"internal_node_id":"0.0-116.0","participant_id":"A2YAYHZYI7M3HD"},{"rt":1190,"stimulus":"stimuli/22.jpg","button_pressed":"0","name":"emotionType","trial_type":"image-button-response","trial_index":117,"time_elapsed":293911,"internal_node_id":"0.0-117.0","participant_id":"A2YAYHZYI7M3HD"},{"rt":null,"stimulus":"<p style=\"font-size: 48px;\">+</p>","key_press":null,"Name":"fixation","trial_type":"html-keyboard-response","trial_index":118,"time_elapsed":294913,"internal_node_id":"0.0-118.0","participant_id":"A2YAYHZYI7M3HD"},{"rt":null,"stimulus":"stimuli/38.jpg","button_pressed":null,"name":"noRating","trial_type":"image-button-response","trial_index":119,"time_elapsed":299918,"internal_node_id":"0.0-119.0","participant_id":"A2YAYHZYI7M3HD"},{"rt":1620,"stimulus":"stimuli/38.jpg","button_pressed":"0","name":"valence","trial_type":"image-button-response","trial_index":120,"time_elapsed":301540,"internal_node_id":"0.0-120.0","participant_id":"A2YAYHZYI7M3HD"},{"rt":2489,"response":"64","name":"rating","trial_type":"image-slider-response","trial_index":121,"time_elapsed":304034,"internal_node_id":"0.0-121.0","participant_id":"A2YAYHZYI7M3HD"},{"rt":1125,"stimulus":"stimuli/38.jpg","button_pressed":"0","name":"emotionType","trial_type":"image-button-response","trial_index":122,"time_elapsed":305163,"internal_node_id":"0.0-122.0","participant_id":"A2YAYHZYI7M3HD"},{"rt":null,"stimulus":"<p style=\"font-size: 48px;\">+</p>","key_press":null,"Name":"fixation","trial_type":"html-keyboard-response","trial_index":123,"time_elapsed":306665,"internal_node_id":"0.0-123.0","participant_id":"A2YAYHZYI7M3HD"},{"rt":null,"stimulus":"stimuli/70.jpg","button_pressed":null,"name":"noRating","trial_type":"image-button-response","trial_index":124,"time_elapsed":311668,"internal_node_id":"0.0-124.0","participant_id":"A2YAYHZYI7M3HD"},{"rt":1689,"stimulus":"stimuli/70.jpg","button_pressed":"0","name":"valence","trial_type":"image-button-response","trial_index":125,"time_elapsed":313360,"internal_node_id":"0.0-125.0","participant_id":"A2YAYHZYI7M3HD"},{"rt":2553,"response":"79","name":"rating","trial_type":"image-slider-response","trial_index":126,"time_elapsed":315918,"internal_node_id":"0.0-126.0","participant_id":"A2YAYHZYI7M3HD"},{"rt":1117,"stimulus":"stimuli/70.jpg","button_pressed":"0","name":"emotionType","trial_type":"image-button-response","trial_index":127,"time_elapsed":317040,"internal_node_id":"0.0-127.0","participant_id":"A2YAYHZYI7M3HD"},{"rt":null,"stimulus":"<p style=\"font-size: 48px;\">+</p>","key_press":null,"Name":"fixation","trial_type":"html-keyboard-response","trial_index":128,"time_elapsed":318544,"internal_node_id":"0.0-128.0","participant_id":"A2YAYHZYI7M3HD"},{"rt":null,"stimulus":"stimuli/26.jpg","button_pressed":null,"name":"noRating","trial_type":"image-button-response","trial_index":129,"time_elapsed":323546,"internal_node_id":"0.0-129.0","participant_id":"A2YAYHZYI7M3HD"},{"rt":1435,"stimulus":"stimuli/26.jpg","button_pressed":"0","name":"valence","trial_type":"image-button-response","trial_index":130,"time_elapsed":324984,"internal_node_id":"0.0-130.0","participant_id":"A2YAYHZYI7M3HD"},{"rt":2265,"response":"61","name":"rating","trial_type":"image-slider-response","trial_index":131,"time_elapsed":327253,"internal_node_id":"0.0-131.0","participant_id":"A2YAYHZYI7M3HD"},{"rt":1166,"stimulus":"stimuli/26.jpg","button_pressed":"0","name":"emotionType","trial_type":"image-button-response","trial_index":132,"time_elapsed":328424,"internal_node_id":"0.0-132.0","participant_id":"A2YAYHZYI7M3HD"},{"rt":null,"stimulus":"<p style=\"font-size: 48px;\">+</p>","key_press":null,"Name":"fixation","trial_type":"html-keyboard-response","trial_index":133,"time_elapsed":329927,"internal_node_id":"0.0-133.0","participant_id":"A2YAYHZYI7M3HD"},{"rt":null,"stimulus":"stimuli/71.jpg","button_pressed":null,"name":"noRating","trial_type":"image-button-response","trial_index":134,"time_elapsed":334930,"internal_node_id":"0.0-134.0","participant_id":"A2YAYHZYI7M3HD"},{"rt":1416,"stimulus":"stimuli/71.jpg","button_pressed":"0","name":"valence","trial_type":"image-button-response","trial_index":135,"time_elapsed":336349,"internal_node_id":"0.0-135.0","participant_id":"A2YAYHZYI7M3HD"},{"rt":2148,"response":"58","name":"rating","trial_type":"image-slider-response","trial_index":136,"time_elapsed":338501,"internal_node_id":"0.0-136.0","participant_id":"A2YAYHZYI7M3HD"},{"rt":1048,"stimulus":"stimuli/71.jpg","button_pressed":"0","name":"emotionType","trial_type":"image-button-response","trial_index":137,"time_elapsed":339552,"internal_node_id":"0.0-137.0","participant_id":"A2YAYHZYI7M3HD"},{"rt":3319,"responses":"{\"Q0\":\"we\"}","trial_type":"survey-text","trial_index":138,"time_elapsed":342874,"internal_node_id":"0.0-138.0-0.0","participant_id":"A2YAYHZYI7M3HD"},{"rt":null,"stimulus":"<p style=\"font-size: 48px;\">+</p>","key_press":null,"Name":"fixation","trial_type":"html-keyboard-response","trial_index":139,"time_elapsed":343880,"internal_node_id":"0.0-139.0","participant_id":"A2YAYHZYI7M3HD"},{"rt":null,"stimulus":"stimuli/31.jpg","button_pressed":null,"name":"noRating","trial_type":"image-button-response","trial_index":140,"time_elapsed":348884,"internal_node_id":"0.0-140.0","participant_id":"A2YAYHZYI7M3HD"},{"rt":1785,"stimulus":"stimuli/31.jpg","button_pressed":"0","name":"valence","trial_type":"image-button-response","trial_index":141,"time_elapsed":350672,"internal_node_id":"0.0-141.0","participant_id":"A2YAYHZYI7M3HD"},{"rt":2049,"response":"65","name":"rating","trial_type":"image-slider-response","trial_index":142,"time_elapsed":352725,"internal_node_id":"0.0-142.0","participant_id":"A2YAYHZYI7M3HD"},{"rt":1389,"stimulus":"stimuli/31.jpg","button_pressed":"0","name":"emotionType","trial_type":"image-button-response","trial_index":143,"time_elapsed":354117,"internal_node_id":"0.0-143.0","participant_id":"A2YAYHZYI7M3HD"},{"rt":null,"stimulus":"<p style=\"font-size: 48px;\">+</p>","key_press":null,"Name":"fixation","trial_type":"html-keyboard-response","trial_index":144,"time_elapsed":355120,"internal_node_id":"0.0-144.0","participant_id":"A2YAYHZYI7M3HD"},{"rt":null,"stimulus":"stimuli/13.jpg","button_pressed":null,"name":"noRating","trial_type":"image-button-response","trial_index":145,"time_elapsed":360124,"internal_node_id":"0.0-145.0","participant_id":"A2YAYHZYI7M3HD"},{"rt":2786,"stimulus":"stimuli/13.jpg","button_pressed":"0","name":"valence","trial_type":"image-button-response","trial_index":146,"time_elapsed":362913,"internal_node_id":"0.0-146.0","participant_id":"A2YAYHZYI7M3HD"},{"rt":2566,"response":"46","name":"rating","trial_type":"image-slider-response","trial_index":147,"time_elapsed":365483,"internal_node_id":"0.0-147.0","participant_id":"A2YAYHZYI7M3HD"},{"rt":1313,"stimulus":"stimuli/13.jpg","button_pressed":"0","name":"emotionType","trial_type":"image-button-response","trial_index":148,"time_elapsed":366799,"internal_node_id":"0.0-148.0","participant_id":"A2YAYHZYI7M3HD"},{"rt":null,"stimulus":"<p style=\"font-size: 48px;\">+</p>","key_press":null,"Name":"fixation","trial_type":"html-keyboard-response","trial_index":149,"time_elapsed":367304,"internal_node_id":"0.0-149.0","participant_id":"A2YAYHZYI7M3HD"},{"rt":null,"stimulus":"stimuli/28.jpg","button_pressed":null,"name":"noRating","trial_type":"image-button-response","trial_index":150,"time_elapsed":372307,"internal_node_id":"0.0-150.0","participant_id":"A2YAYHZYI7M3HD"},{"rt":1158,"stimulus":"stimuli/28.jpg","button_pressed":"0","name":"valence","trial_type":"image-button-response","trial_index":151,"time_elapsed":373468,"internal_node_id":"0.0-151.0","participant_id":"A2YAYHZYI7M3HD"},{"rt":2418,"response":"72","name":"rating","trial_type":"image-slider-response","trial_index":152,"time_elapsed":375891,"internal_node_id":"0.0-152.0","participant_id":"A2YAYHZYI7M3HD"},{"rt":1081,"stimulus":"stimuli/28.jpg","button_pressed":"0","name":"emotionType","trial_type":"image-button-response","trial_index":153,"time_elapsed":376977,"internal_node_id":"0.0-153.0","participant_id":"A2YAYHZYI7M3HD"},{"rt":null,"stimulus":"<p style=\"font-size: 48px;\">+</p>","key_press":null,"Name":"fixation","trial_type":"html-keyboard-response","trial_index":154,"time_elapsed":377480,"internal_node_id":"0.0-154.0","participant_id":"A2YAYHZYI7M3HD"},{"rt":null,"stimulus":"stimuli/53.jpg","button_pressed":null,"name":"noRating","trial_type":"image-button-response","trial_index":155,"time_elapsed":382483,"internal_node_id":"0.0-155.0","participant_id":"A2YAYHZYI7M3HD"},{"rt":1096,"stimulus":"stimuli/53.jpg","button_pressed":"0","name":"valence","trial_type":"image-button-response","trial_index":156,"time_elapsed":383581,"internal_node_id":"0.0-156.0","participant_id":"A2YAYHZYI7M3HD"},{"rt":2019,"response":"67","name":"rating","trial_type":"image-slider-response","trial_index":157,"time_elapsed":385603,"internal_node_id":"0.0-157.0","participant_id":"A2YAYHZYI7M3HD"},{"rt":1031,"stimulus":"stimuli/53.jpg","button_pressed":"0","name":"emotionType","trial_type":"image-button-response","trial_index":158,"time_elapsed":386637,"internal_node_id":"0.0-158.0","participant_id":"A2YAYHZYI7M3HD"},{"rt":null,"stimulus":"<p style=\"font-size: 48px;\">+</p>","key_press":null,"Name":"fixation","trial_type":"html-keyboard-response","trial_index":159,"time_elapsed":388141,"internal_node_id":"0.0-159.0","participant_id":"A2YAYHZYI7M3HD"},{"rt":null,"stimulus":"stimuli/36.jpg","button_pressed":null,"name":"noRating","trial_type":"image-button-response","trial_index":160,"time_elapsed":393144,"internal_node_id":"0.0-160.0","participant_id":"A2YAYHZYI7M3HD"},{"rt":1428,"stimulus":"stimuli/36.jpg","button_pressed":"0","name":"valence","trial_type":"image-button-response","trial_index":161,"time_elapsed":394573,"internal_node_id":"0.0-161.0","participant_id":"A2YAYHZYI7M3HD"},{"rt":2378,"response":"75","name":"rating","trial_type":"image-slider-response","trial_index":162,"time_elapsed":396955,"internal_node_id":"0.0-162.0","participant_id":"A2YAYHZYI7M3HD"},{"rt":1124,"stimulus":"stimuli/36.jpg","button_pressed":"0","name":"emotionType","trial_type":"image-button-response","trial_index":163,"time_elapsed":398082,"internal_node_id":"0.0-163.0","participant_id":"A2YAYHZYI7M3HD"},{"rt":4607,"stimulus":"stimuli/ins/Slide8.JPG","button_pressed":"0","trial_type":"image-button-response","trial_index":164,"time_elapsed":402692,"internal_node_id":"0.0-164.0","participant_id":"A2YAYHZYI7M3HD"}]