[{"rt":10893,"responses":"{\"Q0\":\"A2ZGAH6NOSU2PO\"}","trial_type":"survey-text","trial_index":0,"time_elapsed":10904,"internal_node_id":"0.0-0.0-0.0","participant_id":"A2ZGAH6NOSU2PO"},{"rt":7317,"stimulus":"stimuli/ins/Slide1.JPG","button_pressed":"0","Name":"instructions","trial_type":"image-button-response","trial_index":1,"time_elapsed":18229,"internal_node_id":"0.0-1.0","participant_id":"A2ZGAH6NOSU2PO"},{"rt":4327,"stimulus":"stimuli/ins/Slide2.JPG","button_pressed":"0","Name":"instructions","trial_type":"image-button-response","trial_index":2,"time_elapsed":22561,"internal_node_id":"0.0-2.0","participant_id":"A2ZGAH6NOSU2PO"},{"rt":5868,"stimulus":"stimuli/ins/Slide3.JPG","button_pressed":"0","Name":"instructions","trial_type":"image-button-response","trial_index":3,"time_elapsed":28434,"internal_node_id":"0.0-3.0","participant_id":"A2ZGAH6NOSU2PO"},{"rt":6047,"stimulus":"stimuli/ins/Slide4.JPG","button_pressed":"0","Name":"instructions","trial_type":"image-button-response","trial_index":4,"time_elapsed":34485,"internal_node_id":"0.0-4.0","participant_id":"A2ZGAH6NOSU2PO"},{"rt":7103,"stimulus":"stimuli/ins/Slide5.JPG","button_pressed":"0","Name":"instructions","trial_type":"image-button-response","trial_index":5,"time_elapsed":41593,"internal_node_id":"0.0-5.0","participant_id":"A2ZGAH6NOSU2PO"},{"rt":4463,"stimulus":"stimuli/ins/Slide6.JPG","button_pressed":"0","Name":"instructions","trial_type":"image-button-response","trial_index":6,"time_elapsed":46060,"internal_node_id":"0.0-6.0","participant_id":"A2ZGAH6NOSU2PO"},{"rt":1953,"stimulus":"stimuli/ins/Slide7.JPG","button_pressed":"0","Name":"instructions","trial_type":"image-button-response","trial_index":7,"time_elapsed":48017,"internal_node_id":"0.0-7.0","participant_id":"A2ZGAH6NOSU2PO"},{"rt":8358,"responses":"{\"Q0\":\"but\"}","trial_type":"survey-text","trial_index":8,"time_elapsed":56382,"internal_node_id":"0.0-8.0-0.0","participant_id":"A2ZGAH6NOSU2PO"},{"rt":null,"stimulus":"<p style=\"font-size: 48px;\">+</p>","key_press":null,"Name":"fixation","trial_type":"html-keyboard-response","trial_index":9,"time_elapsed":57438,"internal_node_id":"0.0-9.0","participant_id":"A2ZGAH6NOSU2PO"},{"rt":null,"stimulus":"stimuli/47.jpg","button_pressed":null,"name":"noRating","trial_type":"image-button-response","trial_index":10,"time_elapsed":62466,"internal_node_id":"0.0-10.0","participant_id":"A2ZGAH6NOSU2PO"},{"rt":2326,"stimulus":"stimuli/47.jpg","button_pressed":"0","name":"valence","trial_type":"image-button-response","trial_index":11,"time_elapsed":64796,"internal_node_id":"0.0-11.0","participant_id":"A2ZGAH6NOSU2PO"},{"rt":8678,"response":"88","name":"rating","trial_type":"image-slider-response","trial_index":12,"time_elapsed":73483,"internal_node_id":"0.0-12.0","participant_id":"A2ZGAH6NOSU2PO"},{"rt":4572,"stimulus":"stimuli/47.jpg","button_pressed":"0","name":"emotionType","trial_type":"image-button-response","trial_index":13,"time_elapsed":78064,"internal_node_id":"0.0-13.0","participant_id":"A2ZGAH6NOSU2PO"},{"rt":null,"stimulus":"<p style=\"font-size: 48px;\">+</p>","key_press":null,"Name":"fixation","trial_type":"html-keyboard-response","trial_index":14,"time_elapsed":79570,"internal_node_id":"0.0-14.0","participant_id":"A2ZGAH6NOSU2PO"},{"rt":null,"stimulus":"stimuli/70.jpg","button_pressed":null,"name":"noRating","trial_type":"image-button-response","trial_index":15,"time_elapsed":84575,"internal_node_id":"0.0-15.0","participant_id":"A2ZGAH6NOSU2PO"},{"rt":1906,"stimulus":"stimuli/70.jpg","button_pressed":"0","name":"valence","trial_type":"image-button-response","trial_index":16,"time_elapsed":86488,"internal_node_id":"0.0-16.0","participant_id":"A2ZGAH6NOSU2PO"},{"rt":5165,"response":"90","name":"rating","trial_type":"image-slider-response","trial_index":17,"time_elapsed":91660,"internal_node_id":"0.0-17.0","participant_id":"A2ZGAH6NOSU2PO"},{"rt":2915,"stimulus":"stimuli/70.jpg","button_pressed":"1","name":"emotionType","trial_type":"image-button-response","trial_index":18,"time_elapsed":94583,"internal_node_id":"0.0-18.0","participant_id":"A2ZGAH6NOSU2PO"},{"rt":null,"stimulus":"<p style=\"font-size: 48px;\">+</p>","key_press":null,"Name":"fixation","trial_type":"html-keyboard-response","trial_index":19,"time_elapsed":96151,"internal_node_id":"0.0-19.0","participant_id":"A2ZGAH6NOSU2PO"},{"rt":null,"stimulus":"stimuli/41.jpg","button_pressed":null,"name":"noRating","trial_type":"image-button-response","trial_index":20,"time_elapsed":101304,"internal_node_id":"0.0-20.0","participant_id":"A2ZGAH6NOSU2PO"},{"rt":2147,"stimulus":"stimuli/41.jpg","button_pressed":"0","name":"valence","trial_type":"image-button-response","trial_index":21,"time_elapsed":103453,"internal_node_id":"0.0-21.0","participant_id":"A2ZGAH6NOSU2PO"},{"rt":6642,"response":"83","name":"rating","trial_type":"image-slider-response","trial_index":22,"time_elapsed":110101,"internal_node_id":"0.0-22.0","participant_id":"A2ZGAH6NOSU2PO"},{"rt":5423,"stimulus":"stimuli/41.jpg","button_pressed":"1","name":"emotionType","trial_type":"image-button-response","trial_index":23,"time_elapsed":115530,"internal_node_id":"0.0-23.0","participant_id":"A2ZGAH6NOSU2PO"},{"rt":null,"stimulus":"<p style=\"font-size: 48px;\">+</p>","key_press":null,"Name":"fixation","trial_type":"html-keyboard-response","trial_index":24,"time_elapsed":117076,"internal_node_id":"0.0-24.0","participant_id":"A2ZGAH6NOSU2PO"},{"rt":null,"stimulus":"stimuli/17.jpg","button_pressed":null,"name":"noRating","trial_type":"image-button-response","trial_index":25,"time_elapsed":122127,"internal_node_id":"0.0-25.0","participant_id":"A2ZGAH6NOSU2PO"},{"rt":5399,"stimulus":"stimuli/17.jpg","button_pressed":"0","name":"valence","trial_type":"image-button-response","trial_index":26,"time_elapsed":127529,"internal_node_id":"0.0-26.0","participant_id":"A2ZGAH6NOSU2PO"},{"rt":7511,"response":"79","name":"rating","trial_type":"image-slider-response","trial_index":27,"time_elapsed":135045,"internal_node_id":"0.0-27.0","participant_id":"A2ZGAH6NOSU2PO"},{"rt":2064,"stimulus":"stimuli/17.jpg","button_pressed":"1","name":"emotionType","trial_type":"image-button-response","trial_index":28,"time_elapsed":137114,"internal_node_id":"0.0-28.0","participant_id":"A2ZGAH6NOSU2PO"},{"rt":null,"stimulus":"<p style=\"font-size: 48px;\">+</p>","key_press":null,"Name":"fixation","trial_type":"html-keyboard-response","trial_index":29,"time_elapsed":137739,"internal_node_id":"0.0-29.0","participant_id":"A2ZGAH6NOSU2PO"},{"rt":null,"stimulus":"stimuli/58.jpg","button_pressed":null,"name":"noRating","trial_type":"image-button-response","trial_index":30,"time_elapsed":142913,"internal_node_id":"0.0-30.0","participant_id":"A2ZGAH6NOSU2PO"},{"rt":2418,"stimulus":"stimuli/58.jpg","button_pressed":"0","name":"valence","trial_type":"image-button-response","trial_index":31,"time_elapsed":145335,"internal_node_id":"0.0-31.0","participant_id":"A2ZGAH6NOSU2PO"},{"rt":5721,"response":"95","name":"rating","trial_type":"image-slider-response","trial_index":32,"time_elapsed":151061,"internal_node_id":"0.0-32.0","participant_id":"A2ZGAH6NOSU2PO"},{"rt":1541,"stimulus":"stimuli/58.jpg","button_pressed":"1","name":"emotionType","trial_type":"image-button-response","trial_index":33,"time_elapsed":152609,"internal_node_id":"0.0-33.0","participant_id":"A2ZGAH6NOSU2PO"},{"rt":4810,"responses":"{\"Q0\":\"rock\"}","trial_type":"survey-text","trial_index":34,"time_elapsed":157426,"internal_node_id":"0.0-34.0-0.0","participant_id":"A2ZGAH6NOSU2PO"},{"rt":null,"stimulus":"<p style=\"font-size: 48px;\">+</p>","key_press":null,"Name":"fixation","trial_type":"html-keyboard-response","trial_index":35,"time_elapsed":159078,"internal_node_id":"0.0-35.0","participant_id":"A2ZGAH6NOSU2PO"},{"rt":null,"stimulus":"stimuli/49.jpg","button_pressed":null,"name":"noRating","trial_type":"image-button-response","trial_index":36,"time_elapsed":164166,"internal_node_id":"0.0-36.0","participant_id":"A2ZGAH6NOSU2PO"},{"rt":2269,"stimulus":"stimuli/49.jpg","button_pressed":"0","name":"valence","trial_type":"image-button-response","trial_index":37,"time_elapsed":166438,"internal_node_id":"0.0-37.0","participant_id":"A2ZGAH6NOSU2PO"},{"rt":4198,"response":"98","name":"rating","trial_type":"image-slider-response","trial_index":38,"time_elapsed":170642,"internal_node_id":"0.0-38.0","participant_id":"A2ZGAH6NOSU2PO"},{"rt":1663,"stimulus":"stimuli/49.jpg","button_pressed":"0","name":"emotionType","trial_type":"image-button-response","trial_index":39,"time_elapsed":172311,"internal_node_id":"0.0-39.0","participant_id":"A2ZGAH6NOSU2PO"},{"rt":null,"stimulus":"<p style=\"font-size: 48px;\">+</p>","key_press":null,"Name":"fixation","trial_type":"html-keyboard-response","trial_index":40,"time_elapsed":172881,"internal_node_id":"0.0-40.0","participant_id":"A2ZGAH6NOSU2PO"},{"rt":null,"stimulus":"stimuli/71.jpg","button_pressed":null,"name":"noRating","trial_type":"image-button-response","trial_index":41,"time_elapsed":177891,"internal_node_id":"0.0-41.0","participant_id":"A2ZGAH6NOSU2PO"},{"rt":1905,"stimulus":"stimuli/71.jpg","button_pressed":"0","name":"valence","trial_type":"image-button-response","trial_index":42,"time_elapsed":179799,"internal_node_id":"0.0-42.0","participant_id":"A2ZGAH6NOSU2PO"},{"rt":5445,"response":"96","name":"rating","trial_type":"image-slider-response","trial_index":43,"time_elapsed":185249,"internal_node_id":"0.0-43.0","participant_id":"A2ZGAH6NOSU2PO"},{"rt":1762,"stimulus":"stimuli/71.jpg","button_pressed":"1","name":"emotionType","trial_type":"image-button-response","trial_index":44,"time_elapsed":187017,"internal_node_id":"0.0-44.0","participant_id":"A2ZGAH6NOSU2PO"},{"rt":null,"stimulus":"<p style=\"font-size: 48px;\">+</p>","key_press":null,"Name":"fixation","trial_type":"html-keyboard-response","trial_index":45,"time_elapsed":188545,"internal_node_id":"0.0-45.0","participant_id":"A2ZGAH6NOSU2PO"},{"rt":null,"stimulus":"stimuli/9.jpg","button_pressed":null,"name":"noRating","trial_type":"image-button-response","trial_index":46,"time_elapsed":193551,"internal_node_id":"0.0-46.0","participant_id":"A2ZGAH6NOSU2PO"},{"rt":1945,"stimulus":"stimuli/9.jpg","button_pressed":"0","name":"valence","trial_type":"image-button-response","trial_index":47,"time_elapsed":195499,"internal_node_id":"0.0-47.0","participant_id":"A2ZGAH6NOSU2PO"},{"rt":4450,"response":"96","name":"rating","trial_type":"image-slider-response","trial_index":48,"time_elapsed":199954,"internal_node_id":"0.0-48.0","participant_id":"A2ZGAH6NOSU2PO"},{"rt":1554,"stimulus":"stimuli/9.jpg","button_pressed":"1","name":"emotionType","trial_type":"image-button-response","trial_index":49,"time_elapsed":201514,"internal_node_id":"0.0-49.0","participant_id":"A2ZGAH6NOSU2PO"},{"rt":null,"stimulus":"<p style=\"font-size: 48px;\">+</p>","key_press":null,"Name":"fixation","trial_type":"html-keyboard-response","trial_index":50,"time_elapsed":203063,"internal_node_id":"0.0-50.0","participant_id":"A2ZGAH6NOSU2PO"},{"rt":null,"stimulus":"stimuli/36.jpg","button_pressed":null,"name":"noRating","trial_type":"image-button-response","trial_index":51,"time_elapsed":208068,"internal_node_id":"0.0-51.0","participant_id":"A2ZGAH6NOSU2PO"},{"rt":2385,"stimulus":"stimuli/36.jpg","button_pressed":"0","name":"valence","trial_type":"image-button-response","trial_index":52,"time_elapsed":210456,"internal_node_id":"0.0-52.0","participant_id":"A2ZGAH6NOSU2PO"},{"rt":5857,"response":"92","name":"rating","trial_type":"image-slider-response","trial_index":53,"time_elapsed":216317,"internal_node_id":"0.0-53.0","participant_id":"A2ZGAH6NOSU2PO"},{"rt":2115,"stimulus":"stimuli/36.jpg","button_pressed":"2","name":"emotionType","trial_type":"image-button-response","trial_index":54,"time_elapsed":218436,"internal_node_id":"0.0-54.0","participant_id":"A2ZGAH6NOSU2PO"},{"rt":null,"stimulus":"<p style=\"font-size: 48px;\">+</p>","key_press":null,"Name":"fixation","trial_type":"html-keyboard-response","trial_index":55,"time_elapsed":219442,"internal_node_id":"0.0-55.0","participant_id":"A2ZGAH6NOSU2PO"},{"rt":null,"stimulus":"stimuli/61.jpg","button_pressed":null,"name":"noRating","trial_type":"image-button-response","trial_index":56,"time_elapsed":224543,"internal_node_id":"0.0-56.0","participant_id":"A2ZGAH6NOSU2PO"},{"rt":5099,"stimulus":"stimuli/61.jpg","button_pressed":"0","name":"valence","trial_type":"image-button-response","trial_index":57,"time_elapsed":229652,"internal_node_id":"0.0-57.0","participant_id":"A2ZGAH6NOSU2PO"},{"rt":6247,"response":"83","name":"rating","trial_type":"image-slider-response","trial_index":58,"time_elapsed":235907,"internal_node_id":"0.0-58.0","participant_id":"A2ZGAH6NOSU2PO"},{"rt":3259,"stimulus":"stimuli/61.jpg","button_pressed":"2","name":"emotionType","trial_type":"image-button-response","trial_index":59,"time_elapsed":239175,"internal_node_id":"0.0-59.0","participant_id":"A2ZGAH6NOSU2PO"},{"rt":4751,"responses":"{\"Q0\":\"sky\"}","trial_type":"survey-text","trial_index":60,"time_elapsed":243929,"internal_node_id":"0.0-60.0-0.0","participant_id":"A2ZGAH6NOSU2PO"},{"rt":null,"stimulus":"<p style=\"font-size: 48px;\">+</p>","key_press":null,"Name":"fixation","trial_type":"html-keyboard-response","trial_index":61,"time_elapsed":244434,"internal_node_id":"0.0-61.0","participant_id":"A2ZGAH6NOSU2PO"},{"rt":null,"stimulus":"stimuli/25.jpg","button_pressed":null,"name":"noRating","trial_type":"image-button-response","trial_index":62,"time_elapsed":249437,"internal_node_id":"0.0-62.0","participant_id":"A2ZGAH6NOSU2PO"},{"rt":3494,"stimulus":"stimuli/25.jpg","button_pressed":"2","name":"valence","trial_type":"image-button-response","trial_index":63,"time_elapsed":252934,"internal_node_id":"0.0-63.0","participant_id":"A2ZGAH6NOSU2PO"},{"rt":10394,"response":"71","name":"rating","trial_type":"image-slider-response","trial_index":64,"time_elapsed":263332,"internal_node_id":"0.0-64.0","participant_id":"A2ZGAH6NOSU2PO"},{"rt":4929,"stimulus":"stimuli/25.jpg","button_pressed":"2","name":"emotionType","trial_type":"image-button-response","trial_index":65,"time_elapsed":268266,"internal_node_id":"0.0-65.0","participant_id":"A2ZGAH6NOSU2PO"},{"rt":null,"stimulus":"<p style=\"font-size: 48px;\">+</p>","key_press":null,"Name":"fixation","trial_type":"html-keyboard-response","trial_index":66,"time_elapsed":269280,"internal_node_id":"0.0-66.0","participant_id":"A2ZGAH6NOSU2PO"},{"rt":null,"stimulus":"stimuli/53.jpg","button_pressed":null,"name":"noRating","trial_type":"image-button-response","trial_index":67,"time_elapsed":274283,"internal_node_id":"0.0-67.0","participant_id":"A2ZGAH6NOSU2PO"},{"rt":1775,"stimulus":"stimuli/53.jpg","button_pressed":"0","name":"valence","trial_type":"image-button-response","trial_index":68,"time_elapsed":276063,"internal_node_id":"0.0-68.0","participant_id":"A2ZGAH6NOSU2PO"},{"rt":5615,"response":"93","name":"rating","trial_type":"image-slider-response","trial_index":69,"time_elapsed":281684,"internal_node_id":"0.0-69.0","participant_id":"A2ZGAH6NOSU2PO"},{"rt":2169,"stimulus":"stimuli/53.jpg","button_pressed":"1","name":"emotionType","trial_type":"image-button-response","trial_index":70,"time_elapsed":283858,"internal_node_id":"0.0-70.0","participant_id":"A2ZGAH6NOSU2PO"},{"rt":null,"stimulus":"<p style=\"font-size: 48px;\">+</p>","key_press":null,"Name":"fixation","trial_type":"html-keyboard-response","trial_index":71,"time_elapsed":284438,"internal_node_id":"0.0-71.0","participant_id":"A2ZGAH6NOSU2PO"},{"rt":null,"stimulus":"stimuli/10.jpg","button_pressed":null,"name":"noRating","trial_type":"image-button-response","trial_index":72,"time_elapsed":289478,"internal_node_id":"0.0-72.0","participant_id":"A2ZGAH6NOSU2PO"},{"rt":1831,"stimulus":"stimuli/10.jpg","button_pressed":"0","name":"valence","trial_type":"image-button-response","trial_index":73,"time_elapsed":291312,"internal_node_id":"0.0-73.0","participant_id":"A2ZGAH6NOSU2PO"},{"rt":5204,"response":"73","name":"rating","trial_type":"image-slider-response","trial_index":74,"time_elapsed":296520,"internal_node_id":"0.0-74.0","participant_id":"A2ZGAH6NOSU2PO"},{"rt":2145,"stimulus":"stimuli/10.jpg","button_pressed":"1","name":"emotionType","trial_type":"image-button-response","trial_index":75,"time_elapsed":298669,"internal_node_id":"0.0-75.0","participant_id":"A2ZGAH6NOSU2PO"},{"rt":null,"stimulus":"<p style=\"font-size: 48px;\">+</p>","key_press":null,"Name":"fixation","trial_type":"html-keyboard-response","trial_index":76,"time_elapsed":300173,"internal_node_id":"0.0-76.0","participant_id":"A2ZGAH6NOSU2PO"},{"rt":null,"stimulus":"stimuli/50.jpg","button_pressed":null,"name":"noRating","trial_type":"image-button-response","trial_index":77,"time_elapsed":305236,"internal_node_id":"0.0-77.0","participant_id":"A2ZGAH6NOSU2PO"},{"rt":3666,"stimulus":"stimuli/50.jpg","button_pressed":"2","name":"valence","trial_type":"image-button-response","trial_index":78,"time_elapsed":308905,"internal_node_id":"0.0-78.0","participant_id":"A2ZGAH6NOSU2PO"},{"rt":8867,"response":"66","name":"rating","trial_type":"image-slider-response","trial_index":79,"time_elapsed":317776,"internal_node_id":"0.0-79.0","participant_id":"A2ZGAH6NOSU2PO"},{"rt":3102,"stimulus":"stimuli/50.jpg","button_pressed":"2","name":"emotionType","trial_type":"image-button-response","trial_index":80,"time_elapsed":320882,"internal_node_id":"0.0-80.0","participant_id":"A2ZGAH6NOSU2PO"},{"rt":null,"stimulus":"<p style=\"font-size: 48px;\">+</p>","key_press":null,"Name":"fixation","trial_type":"html-keyboard-response","trial_index":81,"time_elapsed":321916,"internal_node_id":"0.0-81.0","participant_id":"A2ZGAH6NOSU2PO"},{"rt":null,"stimulus":"stimuli/40.jpg","button_pressed":null,"name":"noRating","trial_type":"image-button-response","trial_index":82,"time_elapsed":326918,"internal_node_id":"0.0-82.0","participant_id":"A2ZGAH6NOSU2PO"},{"rt":1668,"stimulus":"stimuli/40.jpg","button_pressed":"0","name":"valence","trial_type":"image-button-response","trial_index":83,"time_elapsed":328590,"internal_node_id":"0.0-83.0","participant_id":"A2ZGAH6NOSU2PO"},{"rt":4182,"response":"78","name":"rating","trial_type":"image-slider-response","trial_index":84,"time_elapsed":332777,"internal_node_id":"0.0-84.0","participant_id":"A2ZGAH6NOSU2PO"},{"rt":2955,"stimulus":"stimuli/40.jpg","button_pressed":"2","name":"emotionType","trial_type":"image-button-response","trial_index":85,"time_elapsed":335736,"internal_node_id":"0.0-85.0","participant_id":"A2ZGAH6NOSU2PO"},{"rt":11044,"responses":"{\"Q0\":\"our\"}","trial_type":"survey-text","trial_index":86,"time_elapsed":346784,"internal_node_id":"0.0-86.0-0.0","participant_id":"A2ZGAH6NOSU2PO"},{"rt":null,"stimulus":"<p style=\"font-size: 48px;\">+</p>","key_press":null,"Name":"fixation","trial_type":"html-keyboard-response","trial_index":87,"time_elapsed":348327,"internal_node_id":"0.0-87.0","participant_id":"A2ZGAH6NOSU2PO"},{"rt":null,"stimulus":"stimuli/54.jpg","button_pressed":null,"name":"noRating","trial_type":"image-button-response","trial_index":88,"time_elapsed":353348,"internal_node_id":"0.0-88.0","participant_id":"A2ZGAH6NOSU2PO"},{"rt":1848,"stimulus":"stimuli/54.jpg","button_pressed":"0","name":"valence","trial_type":"image-button-response","trial_index":89,"time_elapsed":355199,"internal_node_id":"0.0-89.0","participant_id":"A2ZGAH6NOSU2PO"},{"rt":4668,"response":"98","name":"rating","trial_type":"image-slider-response","trial_index":90,"time_elapsed":359872,"internal_node_id":"0.0-90.0","participant_id":"A2ZGAH6NOSU2PO"},{"rt":1770,"stimulus":"stimuli/54.jpg","button_pressed":"0","name":"emotionType","trial_type":"image-button-response","trial_index":91,"time_elapsed":361647,"internal_node_id":"0.0-91.0","participant_id":"A2ZGAH6NOSU2PO"},{"rt":null,"stimulus":"<p style=\"font-size: 48px;\">+</p>","key_press":null,"Name":"fixation","trial_type":"html-keyboard-response","trial_index":92,"time_elapsed":363150,"internal_node_id":"0.0-92.0","participant_id":"A2ZGAH6NOSU2PO"},{"rt":null,"stimulus":"stimuli/16.jpg","button_pressed":null,"name":"noRating","trial_type":"image-button-response","trial_index":93,"time_elapsed":368155,"internal_node_id":"0.0-93.0","participant_id":"A2ZGAH6NOSU2PO"},{"rt":1551,"stimulus":"stimuli/16.jpg","button_pressed":"0","name":"valence","trial_type":"image-button-response","trial_index":94,"time_elapsed":369709,"internal_node_id":"0.0-94.0","participant_id":"A2ZGAH6NOSU2PO"},{"rt":4524,"response":"99","name":"rating","trial_type":"image-slider-response","trial_index":95,"time_elapsed":374238,"internal_node_id":"0.0-95.0","participant_id":"A2ZGAH6NOSU2PO"},{"rt":1180,"stimulus":"stimuli/16.jpg","button_pressed":"0","name":"emotionType","trial_type":"image-button-response","trial_index":96,"time_elapsed":375422,"internal_node_id":"0.0-96.0","participant_id":"A2ZGAH6NOSU2PO"},{"rt":null,"stimulus":"<p style=\"font-size: 48px;\">+</p>","key_press":null,"Name":"fixation","trial_type":"html-keyboard-response","trial_index":97,"time_elapsed":376973,"internal_node_id":"0.0-97.0","participant_id":"A2ZGAH6NOSU2PO"},{"rt":null,"stimulus":"stimuli/13.jpg","button_pressed":null,"name":"noRating","trial_type":"image-button-response","trial_index":98,"time_elapsed":381993,"internal_node_id":"0.0-98.0","participant_id":"A2ZGAH6NOSU2PO"},{"rt":2019,"stimulus":"stimuli/13.jpg","button_pressed":"0","name":"valence","trial_type":"image-button-response","trial_index":99,"time_elapsed":384014,"internal_node_id":"0.0-99.0","participant_id":"A2ZGAH6NOSU2PO"},{"rt":3615,"response":"93","name":"rating","trial_type":"image-slider-response","trial_index":100,"time_elapsed":387633,"internal_node_id":"0.0-100.0","participant_id":"A2ZGAH6NOSU2PO"},{"rt":2467,"stimulus":"stimuli/13.jpg","button_pressed":"1","name":"emotionType","trial_type":"image-button-response","trial_index":101,"time_elapsed":390105,"internal_node_id":"0.0-101.0","participant_id":"A2ZGAH6NOSU2PO"},{"rt":null,"stimulus":"<p style=\"font-size: 48px;\">+</p>","key_press":null,"Name":"fixation","trial_type":"html-keyboard-response","trial_index":102,"time_elapsed":391609,"internal_node_id":"0.0-102.0","participant_id":"A2ZGAH6NOSU2PO"},{"rt":null,"stimulus":"stimuli/66.jpg","button_pressed":null,"name":"noRating","trial_type":"image-button-response","trial_index":103,"time_elapsed":396611,"internal_node_id":"0.0-103.0","participant_id":"A2ZGAH6NOSU2PO"},{"rt":1664,"stimulus":"stimuli/66.jpg","button_pressed":"0","name":"valence","trial_type":"image-button-response","trial_index":104,"time_elapsed":398278,"internal_node_id":"0.0-104.0","participant_id":"A2ZGAH6NOSU2PO"},{"rt":4073,"response":"99","name":"rating","trial_type":"image-slider-response","trial_index":105,"time_elapsed":402355,"internal_node_id":"0.0-105.0","participant_id":"A2ZGAH6NOSU2PO"},{"rt":1190,"stimulus":"stimuli/66.jpg","button_pressed":"0","name":"emotionType","trial_type":"image-button-response","trial_index":106,"time_elapsed":403551,"internal_node_id":"0.0-106.0","participant_id":"A2ZGAH6NOSU2PO"},{"rt":null,"stimulus":"<p style=\"font-size: 48px;\">+</p>","key_press":null,"Name":"fixation","trial_type":"html-keyboard-response","trial_index":107,"time_elapsed":404555,"internal_node_id":"0.0-107.0","participant_id":"A2ZGAH6NOSU2PO"},{"rt":null,"stimulus":"stimuli/14.jpg","button_pressed":null,"name":"noRating","trial_type":"image-button-response","trial_index":108,"time_elapsed":409559,"internal_node_id":"0.0-108.0","participant_id":"A2ZGAH6NOSU2PO"},{"rt":1672,"stimulus":"stimuli/14.jpg","button_pressed":"0","name":"valence","trial_type":"image-button-response","trial_index":109,"time_elapsed":411234,"internal_node_id":"0.0-109.0","participant_id":"A2ZGAH6NOSU2PO"},{"rt":4204,"response":"97","name":"rating","trial_type":"image-slider-response","trial_index":110,"time_elapsed":415451,"internal_node_id":"0.0-110.0","participant_id":"A2ZGAH6NOSU2PO"},{"rt":2300,"stimulus":"stimuli/14.jpg","button_pressed":"1","name":"emotionType","trial_type":"image-button-response","trial_index":111,"time_elapsed":417754,"internal_node_id":"0.0-111.0","participant_id":"A2ZGAH6NOSU2PO"},{"rt":5174,"responses":"{\"Q0\":\"course\"}","trial_type":"survey-text","trial_index":112,"time_elapsed":422930,"internal_node_id":"0.0-112.0-0.0","participant_id":"A2ZGAH6NOSU2PO"},{"rt":null,"stimulus":"<p style=\"font-size: 48px;\">+</p>","key_press":null,"Name":"fixation","trial_type":"html-keyboard-response","trial_index":113,"time_elapsed":424434,"internal_node_id":"0.0-113.0","participant_id":"A2ZGAH6NOSU2PO"},{"rt":null,"stimulus":"stimuli/8.jpg","button_pressed":null,"name":"noRating","trial_type":"image-button-response","trial_index":114,"time_elapsed":429436,"internal_node_id":"0.0-114.0","participant_id":"A2ZGAH6NOSU2PO"},{"rt":1726,"stimulus":"stimuli/8.jpg","button_pressed":"0","name":"valence","trial_type":"image-button-response","trial_index":115,"time_elapsed":431166,"internal_node_id":"0.0-115.0","participant_id":"A2ZGAH6NOSU2PO"},{"rt":6431,"response":"99","name":"rating","trial_type":"image-slider-response","trial_index":116,"time_elapsed":437601,"internal_node_id":"0.0-116.0","participant_id":"A2ZGAH6NOSU2PO"},{"rt":1166,"stimulus":"stimuli/8.jpg","button_pressed":"0","name":"emotionType","trial_type":"image-button-response","trial_index":117,"time_elapsed":438772,"internal_node_id":"0.0-117.0","participant_id":"A2ZGAH6NOSU2PO"},{"rt":null,"stimulus":"<p style=\"font-size: 48px;\">+</p>","key_press":null,"Name":"fixation","trial_type":"html-keyboard-response","trial_index":118,"time_elapsed":440278,"internal_node_id":"0.0-118.0","participant_id":"A2ZGAH6NOSU2PO"},{"rt":null,"stimulus":"stimuli/59.jpg","button_pressed":null,"name":"noRating","trial_type":"image-button-response","trial_index":119,"time_elapsed":445286,"internal_node_id":"0.0-119.0","participant_id":"A2ZGAH6NOSU2PO"},{"rt":1787,"stimulus":"stimuli/59.jpg","button_pressed":"0","name":"valence","trial_type":"image-button-response","trial_index":120,"time_elapsed":447077,"internal_node_id":"0.0-120.0","participant_id":"A2ZGAH6NOSU2PO"},{"rt":4042,"response":"94","name":"rating","trial_type":"image-slider-response","trial_index":121,"time_elapsed":451124,"internal_node_id":"0.0-121.0","participant_id":"A2ZGAH6NOSU2PO"},{"rt":1259,"stimulus":"stimuli/59.jpg","button_pressed":"1","name":"emotionType","trial_type":"image-button-response","trial_index":122,"time_elapsed":452390,"internal_node_id":"0.0-122.0","participant_id":"A2ZGAH6NOSU2PO"},{"rt":null,"stimulus":"<p style=\"font-size: 48px;\">+</p>","key_press":null,"Name":"fixation","trial_type":"html-keyboard-response","trial_index":123,"time_elapsed":452895,"internal_node_id":"0.0-123.0","participant_id":"A2ZGAH6NOSU2PO"},{"rt":null,"stimulus":"stimuli/7.jpg","button_pressed":null,"name":"noRating","trial_type":"image-button-response","trial_index":124,"time_elapsed":458145,"internal_node_id":"0.0-124.0","participant_id":"A2ZGAH6NOSU2PO"},{"rt":1493,"stimulus":"stimuli/7.jpg","button_pressed":"0","name":"valence","trial_type":"image-button-response","trial_index":125,"time_elapsed":459642,"internal_node_id":"0.0-125.0","participant_id":"A2ZGAH6NOSU2PO"},{"rt":3095,"response":"91","name":"rating","trial_type":"image-slider-response","trial_index":126,"time_elapsed":462741,"internal_node_id":"0.0-126.0","participant_id":"A2ZGAH6NOSU2PO"},{"rt":3002,"stimulus":"stimuli/7.jpg","button_pressed":"2","name":"emotionType","trial_type":"image-button-response","trial_index":127,"time_elapsed":465748,"internal_node_id":"0.0-127.0","participant_id":"A2ZGAH6NOSU2PO"},{"rt":null,"stimulus":"<p style=\"font-size: 48px;\">+</p>","key_press":null,"Name":"fixation","trial_type":"html-keyboard-response","trial_index":128,"time_elapsed":466751,"internal_node_id":"0.0-128.0","participant_id":"A2ZGAH6NOSU2PO"},{"rt":null,"stimulus":"stimuli/15.jpg","button_pressed":null,"name":"noRating","trial_type":"image-button-response","trial_index":129,"time_elapsed":471758,"internal_node_id":"0.0-129.0","participant_id":"A2ZGAH6NOSU2PO"},{"rt":1403,"stimulus":"stimuli/15.jpg","button_pressed":"0","name":"valence","trial_type":"image-button-response","trial_index":130,"time_elapsed":473165,"internal_node_id":"0.0-130.0","participant_id":"A2ZGAH6NOSU2PO"},{"rt":3335,"response":"94","name":"rating","trial_type":"image-slider-response","trial_index":131,"time_elapsed":476505,"internal_node_id":"0.0-131.0","participant_id":"A2ZGAH6NOSU2PO"},{"rt":2312,"stimulus":"stimuli/15.jpg","button_pressed":"1","name":"emotionType","trial_type":"image-button-response","trial_index":132,"time_elapsed":478821,"internal_node_id":"0.0-132.0","participant_id":"A2ZGAH6NOSU2PO"},{"rt":null,"stimulus":"<p style=\"font-size: 48px;\">+</p>","key_press":null,"Name":"fixation","trial_type":"html-keyboard-response","trial_index":133,"time_elapsed":480330,"internal_node_id":"0.0-133.0","participant_id":"A2ZGAH6NOSU2PO"},{"rt":null,"stimulus":"stimuli/42.jpg","button_pressed":null,"name":"noRating","trial_type":"image-button-response","trial_index":134,"time_elapsed":485348,"internal_node_id":"0.0-134.0","participant_id":"A2ZGAH6NOSU2PO"},{"rt":1866,"stimulus":"stimuli/42.jpg","button_pressed":"0","name":"valence","trial_type":"image-button-response","trial_index":135,"time_elapsed":487217,"internal_node_id":"0.0-135.0","participant_id":"A2ZGAH6NOSU2PO"},{"rt":3993,"response":"84","name":"rating","trial_type":"image-slider-response","trial_index":136,"time_elapsed":491214,"internal_node_id":"0.0-136.0","participant_id":"A2ZGAH6NOSU2PO"},{"rt":2066,"stimulus":"stimuli/42.jpg","button_pressed":"2","name":"emotionType","trial_type":"image-button-response","trial_index":137,"time_elapsed":493284,"internal_node_id":"0.0-137.0","participant_id":"A2ZGAH6NOSU2PO"},{"rt":4067,"responses":"{\"Q0\":\"we\"}","trial_type":"survey-text","trial_index":138,"time_elapsed":497355,"internal_node_id":"0.0-138.0-0.0","participant_id":"A2ZGAH6NOSU2PO"},{"rt":null,"stimulus":"<p style=\"font-size: 48px;\">+</p>","key_press":null,"Name":"fixation","trial_type":"html-keyboard-response","trial_index":139,"time_elapsed":497861,"internal_node_id":"0.0-139.0","participant_id":"A2ZGAH6NOSU2PO"},{"rt":null,"stimulus":"stimuli/57.jpg","button_pressed":null,"name":"noRating","trial_type":"image-button-response","trial_index":140,"time_elapsed":503081,"internal_node_id":"0.0-140.0","participant_id":"A2ZGAH6NOSU2PO"},{"rt":2666,"stimulus":"stimuli/57.jpg","button_pressed":"0","name":"valence","trial_type":"image-button-response","trial_index":141,"time_elapsed":505750,"internal_node_id":"0.0-141.0","participant_id":"A2ZGAH6NOSU2PO"},{"rt":2737,"response":"87","name":"rating","trial_type":"image-slider-response","trial_index":142,"time_elapsed":508492,"internal_node_id":"0.0-142.0","participant_id":"A2ZGAH6NOSU2PO"},{"rt":1694,"stimulus":"stimuli/57.jpg","button_pressed":"1","name":"emotionType","trial_type":"image-button-response","trial_index":143,"time_elapsed":510191,"internal_node_id":"0.0-143.0","participant_id":"A2ZGAH6NOSU2PO"},{"rt":null,"stimulus":"<p style=\"font-size: 48px;\">+</p>","key_press":null,"Name":"fixation","trial_type":"html-keyboard-response","trial_index":144,"time_elapsed":510695,"internal_node_id":"0.0-144.0","participant_id":"A2ZGAH6NOSU2PO"},{"rt":null,"stimulus":"stimuli/34.jpg","button_pressed":null,"name":"noRating","trial_type":"image-button-response","trial_index":145,"time_elapsed":515726,"internal_node_id":"0.0-145.0","participant_id":"A2ZGAH6NOSU2PO"},{"rt":2173,"stimulus":"stimuli/34.jpg","button_pressed":"2","name":"valence","trial_type":"image-button-response","trial_index":146,"time_elapsed":517911,"internal_node_id":"0.0-146.0","participant_id":"A2ZGAH6NOSU2PO"},{"rt":4327,"response":"70","name":"rating","trial_type":"image-slider-response","trial_index":147,"time_elapsed":522243,"internal_node_id":"0.0-147.0","participant_id":"A2ZGAH6NOSU2PO"},{"rt":2660,"stimulus":"stimuli/34.jpg","button_pressed":"2","name":"emotionType","trial_type":"image-button-response","trial_index":148,"time_elapsed":524910,"internal_node_id":"0.0-148.0","participant_id":"A2ZGAH6NOSU2PO"},{"rt":null,"stimulus":"<p style=\"font-size: 48px;\">+</p>","key_press":null,"Name":"fixation","trial_type":"html-keyboard-response","trial_index":149,"time_elapsed":526414,"internal_node_id":"0.0-149.0","participant_id":"A2ZGAH6NOSU2PO"},{"rt":null,"stimulus":"stimuli/51.jpg","button_pressed":null,"name":"noRating","trial_type":"image-button-response","trial_index":150,"time_elapsed":531418,"internal_node_id":"0.0-150.0","participant_id":"A2ZGAH6NOSU2PO"},{"rt":1474,"stimulus":"stimuli/51.jpg","button_pressed":"0","name":"valence","trial_type":"image-button-response","trial_index":151,"time_elapsed":532895,"internal_node_id":"0.0-151.0","participant_id":"A2ZGAH6NOSU2PO"},{"rt":3844,"response":"100","name":"rating","trial_type":"image-slider-response","trial_index":152,"time_elapsed":536744,"internal_node_id":"0.0-152.0","participant_id":"A2ZGAH6NOSU2PO"},{"rt":2366,"stimulus":"stimuli/51.jpg","button_pressed":"1","name":"emotionType","trial_type":"image-button-response","trial_index":153,"time_elapsed":539115,"internal_node_id":"0.0-153.0","participant_id":"A2ZGAH6NOSU2PO"},{"rt":null,"stimulus":"<p style=\"font-size: 48px;\">+</p>","key_press":null,"Name":"fixation","trial_type":"html-keyboard-response","trial_index":154,"time_elapsed":540118,"internal_node_id":"0.0-154.0","participant_id":"A2ZGAH6NOSU2PO"},{"rt":null,"stimulus":"stimuli/52.jpg","button_pressed":null,"name":"noRating","trial_type":"image-button-response","trial_index":155,"time_elapsed":545151,"internal_node_id":"0.0-155.0","participant_id":"A2ZGAH6NOSU2PO"},{"rt":1765,"stimulus":"stimuli/52.jpg","button_pressed":"0","name":"valence","trial_type":"image-button-response","trial_index":156,"time_elapsed":546920,"internal_node_id":"0.0-156.0","participant_id":"A2ZGAH6NOSU2PO"},{"rt":4491,"response":"100","name":"rating","trial_type":"image-slider-response","trial_index":157,"time_elapsed":551415,"internal_node_id":"0.0-157.0","participant_id":"A2ZGAH6NOSU2PO"},{"rt":1842,"stimulus":"stimuli/52.jpg","button_pressed":"1","name":"emotionType","trial_type":"image-button-response","trial_index":158,"time_elapsed":553263,"internal_node_id":"0.0-158.0","participant_id":"A2ZGAH6NOSU2PO"},{"rt":null,"stimulus":"<p style=\"font-size: 48px;\">+</p>","key_press":null,"Name":"fixation","trial_type":"html-keyboard-response","trial_index":159,"time_elapsed":554794,"internal_node_id":"0.0-159.0","participant_id":"A2ZGAH6NOSU2PO"},{"rt":null,"stimulus":"stimuli/68.jpg","button_pressed":null,"name":"noRating","trial_type":"image-button-response","trial_index":160,"time_elapsed":559827,"internal_node_id":"0.0-160.0","participant_id":"A2ZGAH6NOSU2PO"},{"rt":2191,"stimulus":"stimuli/68.jpg","button_pressed":"0","name":"valence","trial_type":"image-button-response","trial_index":161,"time_elapsed":562022,"internal_node_id":"0.0-161.0","participant_id":"A2ZGAH6NOSU2PO"},{"rt":5667,"response":"92","name":"rating","trial_type":"image-slider-response","trial_index":162,"time_elapsed":567699,"internal_node_id":"0.0-162.0","participant_id":"A2ZGAH6NOSU2PO"},{"rt":2370,"stimulus":"stimuli/68.jpg","button_pressed":"1","name":"emotionType","trial_type":"image-button-response","trial_index":163,"time_elapsed":570074,"internal_node_id":"0.0-163.0","participant_id":"A2ZGAH6NOSU2PO"},{"rt":6954,"stimulus":"stimuli/ins/Slide8.JPG","button_pressed":"0","trial_type":"image-button-response","trial_index":164,"time_elapsed":577033,"internal_node_id":"0.0-164.0","participant_id":"A2ZGAH6NOSU2PO"}]