[{"rt":10711,"responses":"{\"Q0\":\"A30PLS3F9AM54J\"}","trial_type":"survey-text","trial_index":0,"time_elapsed":10716,"internal_node_id":"0.0-0.0-0.0","participant_id":"A30PLS3F9AM54J"},{"rt":5850,"stimulus":"stimuli/ins/Slide1.JPG","button_pressed":"0","Name":"instructions","trial_type":"image-button-response","trial_index":1,"time_elapsed":16572,"internal_node_id":"0.0-1.0","participant_id":"A30PLS3F9AM54J"},{"rt":4085,"stimulus":"stimuli/ins/Slide2.JPG","button_pressed":"0","Name":"instructions","trial_type":"image-button-response","trial_index":2,"time_elapsed":20660,"internal_node_id":"0.0-2.0","participant_id":"A30PLS3F9AM54J"},{"rt":3335,"stimulus":"stimuli/ins/Slide3.JPG","button_pressed":"0","Name":"instructions","trial_type":"image-button-response","trial_index":3,"time_elapsed":23996,"internal_node_id":"0.0-3.0","participant_id":"A30PLS3F9AM54J"},{"rt":6066,"stimulus":"stimuli/ins/Slide4.JPG","button_pressed":"0","Name":"instructions","trial_type":"image-button-response","trial_index":4,"time_elapsed":30065,"internal_node_id":"0.0-4.0","participant_id":"A30PLS3F9AM54J"},{"rt":3536,"stimulus":"stimuli/ins/Slide5.JPG","button_pressed":"0","Name":"instructions","trial_type":"image-button-response","trial_index":5,"time_elapsed":33603,"internal_node_id":"0.0-5.0","participant_id":"A30PLS3F9AM54J"},{"rt":3451,"stimulus":"stimuli/ins/Slide6.JPG","button_pressed":"0","Name":"instructions","trial_type":"image-button-response","trial_index":6,"time_elapsed":37055,"internal_node_id":"0.0-6.0","participant_id":"A30PLS3F9AM54J"},{"rt":3001,"stimulus":"stimuli/ins/Slide7.JPG","button_pressed":"0","Name":"instructions","trial_type":"image-button-response","trial_index":7,"time_elapsed":40057,"internal_node_id":"0.0-7.0","participant_id":"A30PLS3F9AM54J"},{"rt":5631,"responses":"{\"Q0\":\"but\"}","trial_type":"survey-text","trial_index":8,"time_elapsed":45691,"internal_node_id":"0.0-8.0-0.0","participant_id":"A30PLS3F9AM54J"},{"rt":null,"stimulus":"<p style=\"font-size: 48px;\">+</p>","key_press":null,"Name":"fixation","trial_type":"html-keyboard-response","trial_index":9,"time_elapsed":46195,"internal_node_id":"0.0-9.0","participant_id":"A30PLS3F9AM54J"},{"rt":null,"stimulus":"stimuli/1.jpg","button_pressed":null,"name":"noRating","trial_type":"image-button-response","trial_index":10,"time_elapsed":51200,"internal_node_id":"0.0-10.0","participant_id":"A30PLS3F9AM54J"},{"rt":1977,"stimulus":"stimuli/1.jpg","button_pressed":"0","name":"valence","trial_type":"image-button-response","trial_index":11,"time_elapsed":53179,"internal_node_id":"0.0-11.0","participant_id":"A30PLS3F9AM54J"},{"rt":6754,"response":"66","name":"rating","trial_type":"image-slider-response","trial_index":12,"time_elapsed":59937,"internal_node_id":"0.0-12.0","participant_id":"A30PLS3F9AM54J"},{"rt":3121,"stimulus":"stimuli/1.jpg","button_pressed":"0","name":"emotionType","trial_type":"image-button-response","trial_index":13,"time_elapsed":63061,"internal_node_id":"0.0-13.0","participant_id":"A30PLS3F9AM54J"},{"rt":null,"stimulus":"<p style=\"font-size: 48px;\">+</p>","key_press":null,"Name":"fixation","trial_type":"html-keyboard-response","trial_index":14,"time_elapsed":63565,"internal_node_id":"0.0-14.0","participant_id":"A30PLS3F9AM54J"},{"rt":null,"stimulus":"stimuli/37.jpg","button_pressed":null,"name":"noRating","trial_type":"image-button-response","trial_index":15,"time_elapsed":68566,"internal_node_id":"0.0-15.0","participant_id":"A30PLS3F9AM54J"},{"rt":1413,"stimulus":"stimuli/37.jpg","button_pressed":"0","name":"valence","trial_type":"image-button-response","trial_index":16,"time_elapsed":69981,"internal_node_id":"0.0-16.0","participant_id":"A30PLS3F9AM54J"},{"rt":3737,"response":"84","name":"rating","trial_type":"image-slider-response","trial_index":17,"time_elapsed":73721,"internal_node_id":"0.0-17.0","participant_id":"A30PLS3F9AM54J"},{"rt":3325,"stimulus":"stimuli/37.jpg","button_pressed":"0","name":"emotionType","trial_type":"image-button-response","trial_index":18,"time_elapsed":77048,"internal_node_id":"0.0-18.0","participant_id":"A30PLS3F9AM54J"},{"rt":null,"stimulus":"<p style=\"font-size: 48px;\">+</p>","key_press":null,"Name":"fixation","trial_type":"html-keyboard-response","trial_index":19,"time_elapsed":78552,"internal_node_id":"0.0-19.0","participant_id":"A30PLS3F9AM54J"},{"rt":null,"stimulus":"stimuli/4.jpg","button_pressed":null,"name":"noRating","trial_type":"image-button-response","trial_index":20,"time_elapsed":83556,"internal_node_id":"0.0-20.0","participant_id":"A30PLS3F9AM54J"},{"rt":1655,"stimulus":"stimuli/4.jpg","button_pressed":"0","name":"valence","trial_type":"image-button-response","trial_index":21,"time_elapsed":85213,"internal_node_id":"0.0-21.0","participant_id":"A30PLS3F9AM54J"},{"rt":4868,"response":"68","name":"rating","trial_type":"image-slider-response","trial_index":22,"time_elapsed":90083,"internal_node_id":"0.0-22.0","participant_id":"A30PLS3F9AM54J"},{"rt":3106,"stimulus":"stimuli/4.jpg","button_pressed":"0","name":"emotionType","trial_type":"image-button-response","trial_index":23,"time_elapsed":93191,"internal_node_id":"0.0-23.0","participant_id":"A30PLS3F9AM54J"},{"rt":null,"stimulus":"<p style=\"font-size: 48px;\">+</p>","key_press":null,"Name":"fixation","trial_type":"html-keyboard-response","trial_index":24,"time_elapsed":93692,"internal_node_id":"0.0-24.0","participant_id":"A30PLS3F9AM54J"},{"rt":null,"stimulus":"stimuli/18.jpg","button_pressed":null,"name":"noRating","trial_type":"image-button-response","trial_index":25,"time_elapsed":98694,"internal_node_id":"0.0-25.0","participant_id":"A30PLS3F9AM54J"},{"rt":1003,"stimulus":"stimuli/18.jpg","button_pressed":"2","name":"valence","trial_type":"image-button-response","trial_index":26,"time_elapsed":99700,"internal_node_id":"0.0-26.0","participant_id":"A30PLS3F9AM54J"},{"rt":6043,"response":"0","name":"rating","trial_type":"image-slider-response","trial_index":27,"time_elapsed":105745,"internal_node_id":"0.0-27.0","participant_id":"A30PLS3F9AM54J"},{"rt":6787,"stimulus":"stimuli/18.jpg","button_pressed":"2","name":"emotionType","trial_type":"image-button-response","trial_index":28,"time_elapsed":115120,"internal_node_id":"0.0-28.0","participant_id":"A30PLS3F9AM54J"},{"rt":null,"stimulus":"<p style=\"font-size: 48px;\">+</p>","key_press":null,"Name":"fixation","trial_type":"html-keyboard-response","trial_index":29,"time_elapsed":116122,"internal_node_id":"0.0-29.0","participant_id":"A30PLS3F9AM54J"},{"rt":null,"stimulus":"stimuli/12.jpg","button_pressed":null,"name":"noRating","trial_type":"image-button-response","trial_index":30,"time_elapsed":121125,"internal_node_id":"0.0-30.0","participant_id":"A30PLS3F9AM54J"},{"rt":4545,"stimulus":"stimuli/12.jpg","button_pressed":"0","name":"valence","trial_type":"image-button-response","trial_index":31,"time_elapsed":125671,"internal_node_id":"0.0-31.0","participant_id":"A30PLS3F9AM54J"},{"rt":4119,"response":"25","name":"rating","trial_type":"image-slider-response","trial_index":32,"time_elapsed":129793,"internal_node_id":"0.0-32.0","participant_id":"A30PLS3F9AM54J"},{"rt":2782,"stimulus":"stimuli/12.jpg","button_pressed":"0","name":"emotionType","trial_type":"image-button-response","trial_index":33,"time_elapsed":132578,"internal_node_id":"0.0-33.0","participant_id":"A30PLS3F9AM54J"},{"rt":4873,"responses":"{\"Q0\":\"rock\"}","trial_type":"survey-text","trial_index":34,"time_elapsed":137453,"internal_node_id":"0.0-34.0-0.0","participant_id":"A30PLS3F9AM54J"},{"rt":null,"stimulus":"<p style=\"font-size: 48px;\">+</p>","key_press":null,"Name":"fixation","trial_type":"html-keyboard-response","trial_index":35,"time_elapsed":138957,"internal_node_id":"0.0-35.0","participant_id":"A30PLS3F9AM54J"},{"rt":null,"stimulus":"stimuli/53.jpg","button_pressed":null,"name":"noRating","trial_type":"image-button-response","trial_index":36,"time_elapsed":143960,"internal_node_id":"0.0-36.0","participant_id":"A30PLS3F9AM54J"},{"rt":1525,"stimulus":"stimuli/53.jpg","button_pressed":"0","name":"valence","trial_type":"image-button-response","trial_index":37,"time_elapsed":145487,"internal_node_id":"0.0-37.0","participant_id":"A30PLS3F9AM54J"},{"rt":4262,"response":"51","name":"rating","trial_type":"image-slider-response","trial_index":38,"time_elapsed":149751,"internal_node_id":"0.0-38.0","participant_id":"A30PLS3F9AM54J"},{"rt":1773,"stimulus":"stimuli/53.jpg","button_pressed":"0","name":"emotionType","trial_type":"image-button-response","trial_index":39,"time_elapsed":151527,"internal_node_id":"0.0-39.0","participant_id":"A30PLS3F9AM54J"},{"rt":null,"stimulus":"<p style=\"font-size: 48px;\">+</p>","key_press":null,"Name":"fixation","trial_type":"html-keyboard-response","trial_index":40,"time_elapsed":153031,"internal_node_id":"0.0-40.0","participant_id":"A30PLS3F9AM54J"},{"rt":null,"stimulus":"stimuli/35.jpg","button_pressed":null,"name":"noRating","trial_type":"image-button-response","trial_index":41,"time_elapsed":158034,"internal_node_id":"0.0-41.0","participant_id":"A30PLS3F9AM54J"},{"rt":8322,"stimulus":"stimuli/35.jpg","button_pressed":"0","name":"valence","trial_type":"image-button-response","trial_index":42,"time_elapsed":166359,"internal_node_id":"0.0-42.0","participant_id":"A30PLS3F9AM54J"},{"rt":3177,"response":"33","name":"rating","trial_type":"image-slider-response","trial_index":43,"time_elapsed":169539,"internal_node_id":"0.0-43.0","participant_id":"A30PLS3F9AM54J"},{"rt":939,"stimulus":"stimuli/35.jpg","button_pressed":"1","name":"emotionType","trial_type":"image-button-response","trial_index":44,"time_elapsed":170481,"internal_node_id":"0.0-44.0","participant_id":"A30PLS3F9AM54J"},{"rt":null,"stimulus":"<p style=\"font-size: 48px;\">+</p>","key_press":null,"Name":"fixation","trial_type":"html-keyboard-response","trial_index":45,"time_elapsed":171483,"internal_node_id":"0.0-45.0","participant_id":"A30PLS3F9AM54J"},{"rt":null,"stimulus":"stimuli/46.jpg","button_pressed":null,"name":"noRating","trial_type":"image-button-response","trial_index":46,"time_elapsed":176485,"internal_node_id":"0.0-46.0","participant_id":"A30PLS3F9AM54J"},{"rt":1267,"stimulus":"stimuli/46.jpg","button_pressed":"0","name":"valence","trial_type":"image-button-response","trial_index":47,"time_elapsed":177754,"internal_node_id":"0.0-47.0","participant_id":"A30PLS3F9AM54J"},{"rt":3082,"response":"40","name":"rating","trial_type":"image-slider-response","trial_index":48,"time_elapsed":180839,"internal_node_id":"0.0-48.0","participant_id":"A30PLS3F9AM54J"},{"rt":1838,"stimulus":"stimuli/46.jpg","button_pressed":"0","name":"emotionType","trial_type":"image-button-response","trial_index":49,"time_elapsed":182679,"internal_node_id":"0.0-49.0","participant_id":"A30PLS3F9AM54J"},{"rt":null,"stimulus":"<p style=\"font-size: 48px;\">+</p>","key_press":null,"Name":"fixation","trial_type":"html-keyboard-response","trial_index":50,"time_elapsed":183182,"internal_node_id":"0.0-50.0","participant_id":"A30PLS3F9AM54J"},{"rt":null,"stimulus":"stimuli/41.jpg","button_pressed":null,"name":"noRating","trial_type":"image-button-response","trial_index":51,"time_elapsed":188185,"internal_node_id":"0.0-51.0","participant_id":"A30PLS3F9AM54J"},{"rt":21732,"stimulus":"stimuli/41.jpg","button_pressed":"0","name":"valence","trial_type":"image-button-response","trial_index":52,"time_elapsed":209920,"internal_node_id":"0.0-52.0","participant_id":"A30PLS3F9AM54J"},{"rt":3597,"response":"78","name":"rating","trial_type":"image-slider-response","trial_index":53,"time_elapsed":213519,"internal_node_id":"0.0-53.0","participant_id":"A30PLS3F9AM54J"},{"rt":1297,"stimulus":"stimuli/41.jpg","button_pressed":"0","name":"emotionType","trial_type":"image-button-response","trial_index":54,"time_elapsed":214821,"internal_node_id":"0.0-54.0","participant_id":"A30PLS3F9AM54J"},{"rt":null,"stimulus":"<p style=\"font-size: 48px;\">+</p>","key_press":null,"Name":"fixation","trial_type":"html-keyboard-response","trial_index":55,"time_elapsed":216324,"internal_node_id":"0.0-55.0","participant_id":"A30PLS3F9AM54J"},{"rt":null,"stimulus":"stimuli/27.jpg","button_pressed":null,"name":"noRating","trial_type":"image-button-response","trial_index":56,"time_elapsed":221326,"internal_node_id":"0.0-56.0","participant_id":"A30PLS3F9AM54J"},{"rt":1686,"stimulus":"stimuli/27.jpg","button_pressed":"0","name":"valence","trial_type":"image-button-response","trial_index":57,"time_elapsed":223013,"internal_node_id":"0.0-57.0","participant_id":"A30PLS3F9AM54J"},{"rt":5343,"response":"58","name":"rating","trial_type":"image-slider-response","trial_index":58,"time_elapsed":228359,"internal_node_id":"0.0-58.0","participant_id":"A30PLS3F9AM54J"},{"rt":1135,"stimulus":"stimuli/27.jpg","button_pressed":"0","name":"emotionType","trial_type":"image-button-response","trial_index":59,"time_elapsed":229497,"internal_node_id":"0.0-59.0","participant_id":"A30PLS3F9AM54J"},{"rt":8158,"responses":"{\"Q0\":\"sky\"}","trial_type":"survey-text","trial_index":60,"time_elapsed":237657,"internal_node_id":"0.0-60.0-0.0","participant_id":"A30PLS3F9AM54J"},{"rt":null,"stimulus":"<p style=\"font-size: 48px;\">+</p>","key_press":null,"Name":"fixation","trial_type":"html-keyboard-response","trial_index":61,"time_elapsed":238159,"internal_node_id":"0.0-61.0","participant_id":"A30PLS3F9AM54J"},{"rt":null,"stimulus":"stimuli/30.jpg","button_pressed":null,"name":"noRating","trial_type":"image-button-response","trial_index":62,"time_elapsed":243161,"internal_node_id":"0.0-62.0","participant_id":"A30PLS3F9AM54J"},{"rt":1726,"stimulus":"stimuli/30.jpg","button_pressed":"0","name":"valence","trial_type":"image-button-response","trial_index":63,"time_elapsed":244889,"internal_node_id":"0.0-63.0","participant_id":"A30PLS3F9AM54J"},{"rt":4580,"response":"65","name":"rating","trial_type":"image-slider-response","trial_index":64,"time_elapsed":249471,"internal_node_id":"0.0-64.0","participant_id":"A30PLS3F9AM54J"},{"rt":1658,"stimulus":"stimuli/30.jpg","button_pressed":"0","name":"emotionType","trial_type":"image-button-response","trial_index":65,"time_elapsed":251131,"internal_node_id":"0.0-65.0","participant_id":"A30PLS3F9AM54J"},{"rt":null,"stimulus":"<p style=\"font-size: 48px;\">+</p>","key_press":null,"Name":"fixation","trial_type":"html-keyboard-response","trial_index":66,"time_elapsed":252634,"internal_node_id":"0.0-66.0","participant_id":"A30PLS3F9AM54J"},{"rt":null,"stimulus":"stimuli/22.jpg","button_pressed":null,"name":"noRating","trial_type":"image-button-response","trial_index":67,"time_elapsed":257637,"internal_node_id":"0.0-67.0","participant_id":"A30PLS3F9AM54J"},{"rt":2357,"stimulus":"stimuli/22.jpg","button_pressed":"0","name":"valence","trial_type":"image-button-response","trial_index":68,"time_elapsed":260000,"internal_node_id":"0.0-68.0","participant_id":"A30PLS3F9AM54J"},{"rt":3614,"response":"66","name":"rating","trial_type":"image-slider-response","trial_index":69,"time_elapsed":263617,"internal_node_id":"0.0-69.0","participant_id":"A30PLS3F9AM54J"},{"rt":1214,"stimulus":"stimuli/22.jpg","button_pressed":"0","name":"emotionType","trial_type":"image-button-response","trial_index":70,"time_elapsed":264833,"internal_node_id":"0.0-70.0","participant_id":"A30PLS3F9AM54J"},{"rt":null,"stimulus":"<p style=\"font-size: 48px;\">+</p>","key_press":null,"Name":"fixation","trial_type":"html-keyboard-response","trial_index":71,"time_elapsed":266337,"internal_node_id":"0.0-71.0","participant_id":"A30PLS3F9AM54J"},{"rt":null,"stimulus":"stimuli/56.jpg","button_pressed":null,"name":"noRating","trial_type":"image-button-response","trial_index":72,"time_elapsed":271339,"internal_node_id":"0.0-72.0","participant_id":"A30PLS3F9AM54J"},{"rt":1629,"stimulus":"stimuli/56.jpg","button_pressed":"0","name":"valence","trial_type":"image-button-response","trial_index":73,"time_elapsed":272969,"internal_node_id":"0.0-73.0","participant_id":"A30PLS3F9AM54J"},{"rt":4206,"response":"70","name":"rating","trial_type":"image-slider-response","trial_index":74,"time_elapsed":277177,"internal_node_id":"0.0-74.0","participant_id":"A30PLS3F9AM54J"},{"rt":1352,"stimulus":"stimuli/56.jpg","button_pressed":"0","name":"emotionType","trial_type":"image-button-response","trial_index":75,"time_elapsed":278533,"internal_node_id":"0.0-75.0","participant_id":"A30PLS3F9AM54J"},{"rt":null,"stimulus":"<p style=\"font-size: 48px;\">+</p>","key_press":null,"Name":"fixation","trial_type":"html-keyboard-response","trial_index":76,"time_elapsed":280036,"internal_node_id":"0.0-76.0","participant_id":"A30PLS3F9AM54J"},{"rt":null,"stimulus":"stimuli/63.jpg","button_pressed":null,"name":"noRating","trial_type":"image-button-response","trial_index":77,"time_elapsed":285040,"internal_node_id":"0.0-77.0","participant_id":"A30PLS3F9AM54J"},{"rt":1481,"stimulus":"stimuli/63.jpg","button_pressed":"0","name":"valence","trial_type":"image-button-response","trial_index":78,"time_elapsed":286523,"internal_node_id":"0.0-78.0","participant_id":"A30PLS3F9AM54J"},{"rt":4836,"response":"38","name":"rating","trial_type":"image-slider-response","trial_index":79,"time_elapsed":291361,"internal_node_id":"0.0-79.0","participant_id":"A30PLS3F9AM54J"},{"rt":1830,"stimulus":"stimuli/63.jpg","button_pressed":"0","name":"emotionType","trial_type":"image-button-response","trial_index":80,"time_elapsed":293193,"internal_node_id":"0.0-80.0","participant_id":"A30PLS3F9AM54J"},{"rt":null,"stimulus":"<p style=\"font-size: 48px;\">+</p>","key_press":null,"Name":"fixation","trial_type":"html-keyboard-response","trial_index":81,"time_elapsed":294696,"internal_node_id":"0.0-81.0","participant_id":"A30PLS3F9AM54J"},{"rt":null,"stimulus":"stimuli/70.jpg","button_pressed":null,"name":"noRating","trial_type":"image-button-response","trial_index":82,"time_elapsed":299697,"internal_node_id":"0.0-82.0","participant_id":"A30PLS3F9AM54J"},{"rt":2231,"stimulus":"stimuli/70.jpg","button_pressed":"2","name":"valence","trial_type":"image-button-response","trial_index":83,"time_elapsed":301931,"internal_node_id":"0.0-83.0","participant_id":"A30PLS3F9AM54J"},{"rt":3263,"response":"12","name":"rating","trial_type":"image-slider-response","trial_index":84,"time_elapsed":305196,"internal_node_id":"0.0-84.0","participant_id":"A30PLS3F9AM54J"},{"rt":1339,"stimulus":"stimuli/70.jpg","button_pressed":"2","name":"emotionType","trial_type":"image-button-response","trial_index":85,"time_elapsed":306537,"internal_node_id":"0.0-85.0","participant_id":"A30PLS3F9AM54J"},{"rt":4517,"responses":"{\"Q0\":\"our\"}","trial_type":"survey-text","trial_index":86,"time_elapsed":311056,"internal_node_id":"0.0-86.0-0.0","participant_id":"A30PLS3F9AM54J"},{"rt":null,"stimulus":"<p style=\"font-size: 48px;\">+</p>","key_press":null,"Name":"fixation","trial_type":"html-keyboard-response","trial_index":87,"time_elapsed":312558,"internal_node_id":"0.0-87.0","participant_id":"A30PLS3F9AM54J"},{"rt":null,"stimulus":"stimuli/54.jpg","button_pressed":null,"name":"noRating","trial_type":"image-button-response","trial_index":88,"time_elapsed":317559,"internal_node_id":"0.0-88.0","participant_id":"A30PLS3F9AM54J"},{"rt":1210,"stimulus":"stimuli/54.jpg","button_pressed":"0","name":"valence","trial_type":"image-button-response","trial_index":89,"time_elapsed":318772,"internal_node_id":"0.0-89.0","participant_id":"A30PLS3F9AM54J"},{"rt":2656,"response":"75","name":"rating","trial_type":"image-slider-response","trial_index":90,"time_elapsed":321431,"internal_node_id":"0.0-90.0","participant_id":"A30PLS3F9AM54J"},{"rt":1072,"stimulus":"stimuli/54.jpg","button_pressed":"0","name":"emotionType","trial_type":"image-button-response","trial_index":91,"time_elapsed":322506,"internal_node_id":"0.0-91.0","participant_id":"A30PLS3F9AM54J"},{"rt":null,"stimulus":"<p style=\"font-size: 48px;\">+</p>","key_press":null,"Name":"fixation","trial_type":"html-keyboard-response","trial_index":92,"time_elapsed":323008,"internal_node_id":"0.0-92.0","participant_id":"A30PLS3F9AM54J"},{"rt":null,"stimulus":"stimuli/33.jpg","button_pressed":null,"name":"noRating","trial_type":"image-button-response","trial_index":93,"time_elapsed":328010,"internal_node_id":"0.0-93.0","participant_id":"A30PLS3F9AM54J"},{"rt":1803,"stimulus":"stimuli/33.jpg","button_pressed":"0","name":"valence","trial_type":"image-button-response","trial_index":94,"time_elapsed":329816,"internal_node_id":"0.0-94.0","participant_id":"A30PLS3F9AM54J"},{"rt":3435,"response":"50","name":"rating","trial_type":"image-slider-response","trial_index":95,"time_elapsed":333254,"internal_node_id":"0.0-95.0","participant_id":"A30PLS3F9AM54J"},{"rt":1104,"stimulus":"stimuli/33.jpg","button_pressed":"0","name":"emotionType","trial_type":"image-button-response","trial_index":96,"time_elapsed":334361,"internal_node_id":"0.0-96.0","participant_id":"A30PLS3F9AM54J"},{"rt":null,"stimulus":"<p style=\"font-size: 48px;\">+</p>","key_press":null,"Name":"fixation","trial_type":"html-keyboard-response","trial_index":97,"time_elapsed":334864,"internal_node_id":"0.0-97.0","participant_id":"A30PLS3F9AM54J"},{"rt":null,"stimulus":"stimuli/52.jpg","button_pressed":null,"name":"noRating","trial_type":"image-button-response","trial_index":98,"time_elapsed":339867,"internal_node_id":"0.0-98.0","participant_id":"A30PLS3F9AM54J"},{"rt":1303,"stimulus":"stimuli/52.jpg","button_pressed":"0","name":"valence","trial_type":"image-button-response","trial_index":99,"time_elapsed":341173,"internal_node_id":"0.0-99.0","participant_id":"A30PLS3F9AM54J"},{"rt":3638,"response":"67","name":"rating","trial_type":"image-slider-response","trial_index":100,"time_elapsed":344813,"internal_node_id":"0.0-100.0","participant_id":"A30PLS3F9AM54J"},{"rt":1642,"stimulus":"stimuli/52.jpg","button_pressed":"0","name":"emotionType","trial_type":"image-button-response","trial_index":101,"time_elapsed":346457,"internal_node_id":"0.0-101.0","participant_id":"A30PLS3F9AM54J"},{"rt":null,"stimulus":"<p style=\"font-size: 48px;\">+</p>","key_press":null,"Name":"fixation","trial_type":"html-keyboard-response","trial_index":102,"time_elapsed":347960,"internal_node_id":"0.0-102.0","participant_id":"A30PLS3F9AM54J"},{"rt":null,"stimulus":"stimuli/5.jpg","button_pressed":null,"name":"noRating","trial_type":"image-button-response","trial_index":103,"time_elapsed":352963,"internal_node_id":"0.0-103.0","participant_id":"A30PLS3F9AM54J"},{"rt":1330,"stimulus":"stimuli/5.jpg","button_pressed":"0","name":"valence","trial_type":"image-button-response","trial_index":104,"time_elapsed":354296,"internal_node_id":"0.0-104.0","participant_id":"A30PLS3F9AM54J"},{"rt":3420,"response":"51","name":"rating","trial_type":"image-slider-response","trial_index":105,"time_elapsed":357719,"internal_node_id":"0.0-105.0","participant_id":"A30PLS3F9AM54J"},{"rt":1866,"stimulus":"stimuli/5.jpg","button_pressed":"0","name":"emotionType","trial_type":"image-button-response","trial_index":106,"time_elapsed":359588,"internal_node_id":"0.0-106.0","participant_id":"A30PLS3F9AM54J"},{"rt":null,"stimulus":"<p style=\"font-size: 48px;\">+</p>","key_press":null,"Name":"fixation","trial_type":"html-keyboard-response","trial_index":107,"time_elapsed":360090,"internal_node_id":"0.0-107.0","participant_id":"A30PLS3F9AM54J"},{"rt":null,"stimulus":"stimuli/65.jpg","button_pressed":null,"name":"noRating","trial_type":"image-button-response","trial_index":108,"time_elapsed":365092,"internal_node_id":"0.0-108.0","participant_id":"A30PLS3F9AM54J"},{"rt":2179,"stimulus":"stimuli/65.jpg","button_pressed":"0","name":"valence","trial_type":"image-button-response","trial_index":109,"time_elapsed":367272,"internal_node_id":"0.0-109.0","participant_id":"A30PLS3F9AM54J"},{"rt":3871,"response":"34","name":"rating","trial_type":"image-slider-response","trial_index":110,"time_elapsed":371146,"internal_node_id":"0.0-110.0","participant_id":"A30PLS3F9AM54J"},{"rt":1379,"stimulus":"stimuli/65.jpg","button_pressed":"0","name":"emotionType","trial_type":"image-button-response","trial_index":111,"time_elapsed":372528,"internal_node_id":"0.0-111.0","participant_id":"A30PLS3F9AM54J"},{"rt":4617,"responses":"{\"Q0\":\"course\"}","trial_type":"survey-text","trial_index":112,"time_elapsed":377148,"internal_node_id":"0.0-112.0-0.0","participant_id":"A30PLS3F9AM54J"},{"rt":null,"stimulus":"<p style=\"font-size: 48px;\">+</p>","key_press":null,"Name":"fixation","trial_type":"html-keyboard-response","trial_index":113,"time_elapsed":378150,"internal_node_id":"0.0-113.0","participant_id":"A30PLS3F9AM54J"},{"rt":null,"stimulus":"stimuli/45.jpg","button_pressed":null,"name":"noRating","trial_type":"image-button-response","trial_index":114,"time_elapsed":383152,"internal_node_id":"0.0-114.0","participant_id":"A30PLS3F9AM54J"},{"rt":1383,"stimulus":"stimuli/45.jpg","button_pressed":"0","name":"valence","trial_type":"image-button-response","trial_index":115,"time_elapsed":384537,"internal_node_id":"0.0-115.0","participant_id":"A30PLS3F9AM54J"},{"rt":3924,"response":"45","name":"rating","trial_type":"image-slider-response","trial_index":116,"time_elapsed":388464,"internal_node_id":"0.0-116.0","participant_id":"A30PLS3F9AM54J"},{"rt":1417,"stimulus":"stimuli/45.jpg","button_pressed":"0","name":"emotionType","trial_type":"image-button-response","trial_index":117,"time_elapsed":389883,"internal_node_id":"0.0-117.0","participant_id":"A30PLS3F9AM54J"},{"rt":null,"stimulus":"<p style=\"font-size: 48px;\">+</p>","key_press":null,"Name":"fixation","trial_type":"html-keyboard-response","trial_index":118,"time_elapsed":391386,"internal_node_id":"0.0-118.0","participant_id":"A30PLS3F9AM54J"},{"rt":null,"stimulus":"stimuli/32.jpg","button_pressed":null,"name":"noRating","trial_type":"image-button-response","trial_index":119,"time_elapsed":396388,"internal_node_id":"0.0-119.0","participant_id":"A30PLS3F9AM54J"},{"rt":1208,"stimulus":"stimuli/32.jpg","button_pressed":"0","name":"valence","trial_type":"image-button-response","trial_index":120,"time_elapsed":397598,"internal_node_id":"0.0-120.0","participant_id":"A30PLS3F9AM54J"},{"rt":3278,"response":"49","name":"rating","trial_type":"image-slider-response","trial_index":121,"time_elapsed":400878,"internal_node_id":"0.0-121.0","participant_id":"A30PLS3F9AM54J"},{"rt":1265,"stimulus":"stimuli/32.jpg","button_pressed":"0","name":"emotionType","trial_type":"image-button-response","trial_index":122,"time_elapsed":402149,"internal_node_id":"0.0-122.0","participant_id":"A30PLS3F9AM54J"},{"rt":null,"stimulus":"<p style=\"font-size: 48px;\">+</p>","key_press":null,"Name":"fixation","trial_type":"html-keyboard-response","trial_index":123,"time_elapsed":402652,"internal_node_id":"0.0-123.0","participant_id":"A30PLS3F9AM54J"},{"rt":null,"stimulus":"stimuli/51.jpg","button_pressed":null,"name":"noRating","trial_type":"image-button-response","trial_index":124,"time_elapsed":407655,"internal_node_id":"0.0-124.0","participant_id":"A30PLS3F9AM54J"},{"rt":1147,"stimulus":"stimuli/51.jpg","button_pressed":"0","name":"valence","trial_type":"image-button-response","trial_index":125,"time_elapsed":408804,"internal_node_id":"0.0-125.0","participant_id":"A30PLS3F9AM54J"},{"rt":5540,"response":"59","name":"rating","trial_type":"image-slider-response","trial_index":126,"time_elapsed":414346,"internal_node_id":"0.0-126.0","participant_id":"A30PLS3F9AM54J"},{"rt":1602,"stimulus":"stimuli/51.jpg","button_pressed":"1","name":"emotionType","trial_type":"image-button-response","trial_index":127,"time_elapsed":415950,"internal_node_id":"0.0-127.0","participant_id":"A30PLS3F9AM54J"},{"rt":null,"stimulus":"<p style=\"font-size: 48px;\">+</p>","key_press":null,"Name":"fixation","trial_type":"html-keyboard-response","trial_index":128,"time_elapsed":416954,"internal_node_id":"0.0-128.0","participant_id":"A30PLS3F9AM54J"},{"rt":null,"stimulus":"stimuli/11.jpg","button_pressed":null,"name":"noRating","trial_type":"image-button-response","trial_index":129,"time_elapsed":421958,"internal_node_id":"0.0-129.0","participant_id":"A30PLS3F9AM54J"},{"rt":1823,"stimulus":"stimuli/11.jpg","button_pressed":"0","name":"valence","trial_type":"image-button-response","trial_index":130,"time_elapsed":423784,"internal_node_id":"0.0-130.0","participant_id":"A30PLS3F9AM54J"},{"rt":3527,"response":"43","name":"rating","trial_type":"image-slider-response","trial_index":131,"time_elapsed":427314,"internal_node_id":"0.0-131.0","participant_id":"A30PLS3F9AM54J"},{"rt":1488,"stimulus":"stimuli/11.jpg","button_pressed":"0","name":"emotionType","trial_type":"image-button-response","trial_index":132,"time_elapsed":428804,"internal_node_id":"0.0-132.0","participant_id":"A30PLS3F9AM54J"},{"rt":null,"stimulus":"<p style=\"font-size: 48px;\">+</p>","key_press":null,"Name":"fixation","trial_type":"html-keyboard-response","trial_index":133,"time_elapsed":429305,"internal_node_id":"0.0-133.0","participant_id":"A30PLS3F9AM54J"},{"rt":null,"stimulus":"stimuli/8.jpg","button_pressed":null,"name":"noRating","trial_type":"image-button-response","trial_index":134,"time_elapsed":434310,"internal_node_id":"0.0-134.0","participant_id":"A30PLS3F9AM54J"},{"rt":9459,"stimulus":"stimuli/8.jpg","button_pressed":"0","name":"valence","trial_type":"image-button-response","trial_index":135,"time_elapsed":443771,"internal_node_id":"0.0-135.0","participant_id":"A30PLS3F9AM54J"},{"rt":4987,"response":"65","name":"rating","trial_type":"image-slider-response","trial_index":136,"time_elapsed":448760,"internal_node_id":"0.0-136.0","participant_id":"A30PLS3F9AM54J"},{"rt":2771,"stimulus":"stimuli/8.jpg","button_pressed":"0","name":"emotionType","trial_type":"image-button-response","trial_index":137,"time_elapsed":451533,"internal_node_id":"0.0-137.0","participant_id":"A30PLS3F9AM54J"},{"rt":2967,"responses":"{\"Q0\":\"we\"}","trial_type":"survey-text","trial_index":138,"time_elapsed":454502,"internal_node_id":"0.0-138.0-0.0","participant_id":"A30PLS3F9AM54J"},{"rt":null,"stimulus":"<p style=\"font-size: 48px;\">+</p>","key_press":null,"Name":"fixation","trial_type":"html-keyboard-response","trial_index":139,"time_elapsed":455008,"internal_node_id":"0.0-139.0","participant_id":"A30PLS3F9AM54J"},{"rt":null,"stimulus":"stimuli/13.jpg","button_pressed":null,"name":"noRating","trial_type":"image-button-response","trial_index":140,"time_elapsed":460010,"internal_node_id":"0.0-140.0","participant_id":"A30PLS3F9AM54J"},{"rt":20885,"stimulus":"stimuli/13.jpg","button_pressed":"0","name":"valence","trial_type":"image-button-response","trial_index":141,"time_elapsed":480897,"internal_node_id":"0.0-141.0","participant_id":"A30PLS3F9AM54J"},{"rt":3826,"response":"38","name":"rating","trial_type":"image-slider-response","trial_index":142,"time_elapsed":484726,"internal_node_id":"0.0-142.0","participant_id":"A30PLS3F9AM54J"},{"rt":5483,"stimulus":"stimuli/13.jpg","button_pressed":"0","name":"emotionType","trial_type":"image-button-response","trial_index":143,"time_elapsed":490211,"internal_node_id":"0.0-143.0","participant_id":"A30PLS3F9AM54J"},{"rt":null,"stimulus":"<p style=\"font-size: 48px;\">+</p>","key_press":null,"Name":"fixation","trial_type":"html-keyboard-response","trial_index":144,"time_elapsed":490711,"internal_node_id":"0.0-144.0","participant_id":"A30PLS3F9AM54J"},{"rt":null,"stimulus":"stimuli/6.jpg","button_pressed":null,"name":"noRating","trial_type":"image-button-response","trial_index":145,"time_elapsed":495715,"internal_node_id":"0.0-145.0","participant_id":"A30PLS3F9AM54J"},{"rt":18051,"stimulus":"stimuli/6.jpg","button_pressed":"0","name":"valence","trial_type":"image-button-response","trial_index":146,"time_elapsed":513768,"internal_node_id":"0.0-146.0","participant_id":"A30PLS3F9AM54J"},{"rt":4782,"response":"63","name":"rating","trial_type":"image-slider-response","trial_index":147,"time_elapsed":518553,"internal_node_id":"0.0-147.0","participant_id":"A30PLS3F9AM54J"},{"rt":1260,"stimulus":"stimuli/6.jpg","button_pressed":"0","name":"emotionType","trial_type":"image-button-response","trial_index":148,"time_elapsed":519815,"internal_node_id":"0.0-148.0","participant_id":"A30PLS3F9AM54J"},{"rt":null,"stimulus":"<p style=\"font-size: 48px;\">+</p>","key_press":null,"Name":"fixation","trial_type":"html-keyboard-response","trial_index":149,"time_elapsed":520817,"internal_node_id":"0.0-149.0","participant_id":"A30PLS3F9AM54J"},{"rt":null,"stimulus":"stimuli/55.jpg","button_pressed":null,"name":"noRating","trial_type":"image-button-response","trial_index":150,"time_elapsed":525819,"internal_node_id":"0.0-150.0","participant_id":"A30PLS3F9AM54J"},{"rt":1352,"stimulus":"stimuli/55.jpg","button_pressed":"0","name":"valence","trial_type":"image-button-response","trial_index":151,"time_elapsed":527172,"internal_node_id":"0.0-151.0","participant_id":"A30PLS3F9AM54J"},{"rt":4067,"response":"82","name":"rating","trial_type":"image-slider-response","trial_index":152,"time_elapsed":531241,"internal_node_id":"0.0-152.0","participant_id":"A30PLS3F9AM54J"},{"rt":1230,"stimulus":"stimuli/55.jpg","button_pressed":"0","name":"emotionType","trial_type":"image-button-response","trial_index":153,"time_elapsed":532473,"internal_node_id":"0.0-153.0","participant_id":"A30PLS3F9AM54J"},{"rt":null,"stimulus":"<p style=\"font-size: 48px;\">+</p>","key_press":null,"Name":"fixation","trial_type":"html-keyboard-response","trial_index":154,"time_elapsed":533975,"internal_node_id":"0.0-154.0","participant_id":"A30PLS3F9AM54J"},{"rt":null,"stimulus":"stimuli/66.jpg","button_pressed":null,"name":"noRating","trial_type":"image-button-response","trial_index":155,"time_elapsed":538978,"internal_node_id":"0.0-155.0","participant_id":"A30PLS3F9AM54J"},{"rt":1711,"stimulus":"stimuli/66.jpg","button_pressed":"0","name":"valence","trial_type":"image-button-response","trial_index":156,"time_elapsed":540691,"internal_node_id":"0.0-156.0","participant_id":"A30PLS3F9AM54J"},{"rt":2991,"response":"72","name":"rating","trial_type":"image-slider-response","trial_index":157,"time_elapsed":543684,"internal_node_id":"0.0-157.0","participant_id":"A30PLS3F9AM54J"},{"rt":1189,"stimulus":"stimuli/66.jpg","button_pressed":"0","name":"emotionType","trial_type":"image-button-response","trial_index":158,"time_elapsed":544876,"internal_node_id":"0.0-158.0","participant_id":"A30PLS3F9AM54J"},{"rt":null,"stimulus":"<p style=\"font-size: 48px;\">+</p>","key_press":null,"Name":"fixation","trial_type":"html-keyboard-response","trial_index":159,"time_elapsed":545878,"internal_node_id":"0.0-159.0","participant_id":"A30PLS3F9AM54J"},{"rt":null,"stimulus":"stimuli/16.jpg","button_pressed":null,"name":"noRating","trial_type":"image-button-response","trial_index":160,"time_elapsed":550884,"internal_node_id":"0.0-160.0","participant_id":"A30PLS3F9AM54J"},{"rt":1488,"stimulus":"stimuli/16.jpg","button_pressed":"0","name":"valence","trial_type":"image-button-response","trial_index":161,"time_elapsed":552374,"internal_node_id":"0.0-161.0","participant_id":"A30PLS3F9AM54J"},{"rt":3936,"response":"49","name":"rating","trial_type":"image-slider-response","trial_index":162,"time_elapsed":556313,"internal_node_id":"0.0-162.0","participant_id":"A30PLS3F9AM54J"},{"rt":1595,"stimulus":"stimuli/16.jpg","button_pressed":"0","name":"emotionType","trial_type":"image-button-response","trial_index":163,"time_elapsed":557910,"internal_node_id":"0.0-163.0","participant_id":"A30PLS3F9AM54J"},{"rt":4198,"stimulus":"stimuli/ins/Slide8.JPG","button_pressed":"0","trial_type":"image-button-response","trial_index":164,"time_elapsed":562111,"internal_node_id":"0.0-164.0","participant_id":"A30PLS3F9AM54J"}]