[{"rt":11070,"responses":"{\"Q0\":\"A35K3YVCX1LVPE\"}","trial_type":"survey-text","trial_index":0,"time_elapsed":11076,"internal_node_id":"0.0-0.0-0.0","participant_id":"A35K3YVCX1LVPE"},{"rt":3589,"stimulus":"stimuli/ins/Slide1.JPG","button_pressed":"0","Name":"instructions","trial_type":"image-button-response","trial_index":1,"time_elapsed":14669,"internal_node_id":"0.0-1.0","participant_id":"A35K3YVCX1LVPE"},{"rt":2746,"stimulus":"stimuli/ins/Slide2.JPG","button_pressed":"0","Name":"instructions","trial_type":"image-button-response","trial_index":2,"time_elapsed":17417,"internal_node_id":"0.0-2.0","participant_id":"A35K3YVCX1LVPE"},{"rt":4640,"stimulus":"stimuli/ins/Slide3.JPG","button_pressed":"0","Name":"instructions","trial_type":"image-button-response","trial_index":3,"time_elapsed":22059,"internal_node_id":"0.0-3.0","participant_id":"A35K3YVCX1LVPE"},{"rt":4053,"stimulus":"stimuli/ins/Slide4.JPG","button_pressed":"0","Name":"instructions","trial_type":"image-button-response","trial_index":4,"time_elapsed":26113,"internal_node_id":"0.0-4.0","participant_id":"A35K3YVCX1LVPE"},{"rt":4591,"stimulus":"stimuli/ins/Slide5.JPG","button_pressed":"0","Name":"instructions","trial_type":"image-button-response","trial_index":5,"time_elapsed":30705,"internal_node_id":"0.0-5.0","participant_id":"A35K3YVCX1LVPE"},{"rt":4604,"stimulus":"stimuli/ins/Slide6.JPG","button_pressed":"0","Name":"instructions","trial_type":"image-button-response","trial_index":6,"time_elapsed":35311,"internal_node_id":"0.0-6.0","participant_id":"A35K3YVCX1LVPE"},{"rt":1101,"stimulus":"stimuli/ins/Slide7.JPG","button_pressed":"0","Name":"instructions","trial_type":"image-button-response","trial_index":7,"time_elapsed":36413,"internal_node_id":"0.0-7.0","participant_id":"A35K3YVCX1LVPE"},{"rt":10665,"responses":"{\"Q0\":\"but\"}","trial_type":"survey-text","trial_index":8,"time_elapsed":47079,"internal_node_id":"0.0-8.0-0.0","participant_id":"A35K3YVCX1LVPE"},{"rt":null,"stimulus":"<p style=\"font-size: 48px;\">+</p>","key_press":null,"Name":"fixation","trial_type":"html-keyboard-response","trial_index":9,"time_elapsed":48083,"internal_node_id":"0.0-9.0","participant_id":"A35K3YVCX1LVPE"},{"rt":null,"stimulus":"stimuli/8.jpg","button_pressed":null,"name":"noRating","trial_type":"image-button-response","trial_index":10,"time_elapsed":53085,"internal_node_id":"0.0-10.0","participant_id":"A35K3YVCX1LVPE"},{"rt":13727,"stimulus":"stimuli/8.jpg","button_pressed":"0","name":"valence","trial_type":"image-button-response","trial_index":11,"time_elapsed":66813,"internal_node_id":"0.0-11.0","participant_id":"A35K3YVCX1LVPE"},{"rt":4068,"response":"97","name":"rating","trial_type":"image-slider-response","trial_index":12,"time_elapsed":70883,"internal_node_id":"0.0-12.0","participant_id":"A35K3YVCX1LVPE"},{"rt":2543,"stimulus":"stimuli/8.jpg","button_pressed":"0","name":"emotionType","trial_type":"image-button-response","trial_index":13,"time_elapsed":73428,"internal_node_id":"0.0-13.0","participant_id":"A35K3YVCX1LVPE"},{"rt":null,"stimulus":"<p style=\"font-size: 48px;\">+</p>","key_press":null,"Name":"fixation","trial_type":"html-keyboard-response","trial_index":14,"time_elapsed":74935,"internal_node_id":"0.0-14.0","participant_id":"A35K3YVCX1LVPE"},{"rt":null,"stimulus":"stimuli/11.jpg","button_pressed":null,"name":"noRating","trial_type":"image-button-response","trial_index":15,"time_elapsed":79938,"internal_node_id":"0.0-15.0","participant_id":"A35K3YVCX1LVPE"},{"rt":19258,"stimulus":"stimuli/11.jpg","button_pressed":"0","name":"valence","trial_type":"image-button-response","trial_index":16,"time_elapsed":99197,"internal_node_id":"0.0-16.0","participant_id":"A35K3YVCX1LVPE"},{"rt":3401,"response":"99","name":"rating","trial_type":"image-slider-response","trial_index":17,"time_elapsed":102599,"internal_node_id":"0.0-17.0","participant_id":"A35K3YVCX1LVPE"},{"rt":5076,"stimulus":"stimuli/11.jpg","button_pressed":"0","name":"emotionType","trial_type":"image-button-response","trial_index":18,"time_elapsed":107677,"internal_node_id":"0.0-18.0","participant_id":"A35K3YVCX1LVPE"},{"rt":null,"stimulus":"<p style=\"font-size: 48px;\">+</p>","key_press":null,"Name":"fixation","trial_type":"html-keyboard-response","trial_index":19,"time_elapsed":108179,"internal_node_id":"0.0-19.0","participant_id":"A35K3YVCX1LVPE"},{"rt":null,"stimulus":"stimuli/12.jpg","button_pressed":null,"name":"noRating","trial_type":"image-button-response","trial_index":20,"time_elapsed":113182,"internal_node_id":"0.0-20.0","participant_id":"A35K3YVCX1LVPE"},{"rt":24212,"stimulus":"stimuli/12.jpg","button_pressed":"0","name":"valence","trial_type":"image-button-response","trial_index":21,"time_elapsed":137395,"internal_node_id":"0.0-21.0","participant_id":"A35K3YVCX1LVPE"},{"rt":2476,"response":"99","name":"rating","trial_type":"image-slider-response","trial_index":22,"time_elapsed":139873,"internal_node_id":"0.0-22.0","participant_id":"A35K3YVCX1LVPE"},{"rt":1338,"stimulus":"stimuli/12.jpg","button_pressed":"1","name":"emotionType","trial_type":"image-button-response","trial_index":23,"time_elapsed":141213,"internal_node_id":"0.0-23.0","participant_id":"A35K3YVCX1LVPE"},{"rt":null,"stimulus":"<p style=\"font-size: 48px;\">+</p>","key_press":null,"Name":"fixation","trial_type":"html-keyboard-response","trial_index":24,"time_elapsed":142216,"internal_node_id":"0.0-24.0","participant_id":"A35K3YVCX1LVPE"},{"rt":null,"stimulus":"stimuli/31.jpg","button_pressed":null,"name":"noRating","trial_type":"image-button-response","trial_index":25,"time_elapsed":147218,"internal_node_id":"0.0-25.0","participant_id":"A35K3YVCX1LVPE"},{"rt":3047,"stimulus":"stimuli/31.jpg","button_pressed":"0","name":"valence","trial_type":"image-button-response","trial_index":26,"time_elapsed":150267,"internal_node_id":"0.0-26.0","participant_id":"A35K3YVCX1LVPE"},{"rt":3248,"response":"99","name":"rating","trial_type":"image-slider-response","trial_index":27,"time_elapsed":153517,"internal_node_id":"0.0-27.0","participant_id":"A35K3YVCX1LVPE"},{"rt":1796,"stimulus":"stimuli/31.jpg","button_pressed":"0","name":"emotionType","trial_type":"image-button-response","trial_index":28,"time_elapsed":155315,"internal_node_id":"0.0-28.0","participant_id":"A35K3YVCX1LVPE"},{"rt":null,"stimulus":"<p style=\"font-size: 48px;\">+</p>","key_press":null,"Name":"fixation","trial_type":"html-keyboard-response","trial_index":29,"time_elapsed":155818,"internal_node_id":"0.0-29.0","participant_id":"A35K3YVCX1LVPE"},{"rt":null,"stimulus":"stimuli/71.jpg","button_pressed":null,"name":"noRating","trial_type":"image-button-response","trial_index":30,"time_elapsed":160820,"internal_node_id":"0.0-30.0","participant_id":"A35K3YVCX1LVPE"},{"rt":5742,"stimulus":"stimuli/71.jpg","button_pressed":"0","name":"valence","trial_type":"image-button-response","trial_index":31,"time_elapsed":166565,"internal_node_id":"0.0-31.0","participant_id":"A35K3YVCX1LVPE"},{"rt":3032,"response":"72","name":"rating","trial_type":"image-slider-response","trial_index":32,"time_elapsed":169599,"internal_node_id":"0.0-32.0","participant_id":"A35K3YVCX1LVPE"},{"rt":3189,"stimulus":"stimuli/71.jpg","button_pressed":"0","name":"emotionType","trial_type":"image-button-response","trial_index":33,"time_elapsed":172789,"internal_node_id":"0.0-33.0","participant_id":"A35K3YVCX1LVPE"},{"rt":3746,"responses":"{\"Q0\":\"rock\"}","trial_type":"survey-text","trial_index":34,"time_elapsed":176537,"internal_node_id":"0.0-34.0-0.0","participant_id":"A35K3YVCX1LVPE"},{"rt":null,"stimulus":"<p style=\"font-size: 48px;\">+</p>","key_press":null,"Name":"fixation","trial_type":"html-keyboard-response","trial_index":35,"time_elapsed":178039,"internal_node_id":"0.0-35.0","participant_id":"A35K3YVCX1LVPE"},{"rt":null,"stimulus":"stimuli/36.jpg","button_pressed":null,"name":"noRating","trial_type":"image-button-response","trial_index":36,"time_elapsed":183043,"internal_node_id":"0.0-36.0","participant_id":"A35K3YVCX1LVPE"},{"rt":22887,"stimulus":"stimuli/36.jpg","button_pressed":"0","name":"valence","trial_type":"image-button-response","trial_index":37,"time_elapsed":205932,"internal_node_id":"0.0-37.0","participant_id":"A35K3YVCX1LVPE"},{"rt":2125,"response":"93","name":"rating","trial_type":"image-slider-response","trial_index":38,"time_elapsed":208060,"internal_node_id":"0.0-38.0","participant_id":"A35K3YVCX1LVPE"},{"rt":3201,"stimulus":"stimuli/36.jpg","button_pressed":"2","name":"emotionType","trial_type":"image-button-response","trial_index":39,"time_elapsed":211263,"internal_node_id":"0.0-39.0","participant_id":"A35K3YVCX1LVPE"},{"rt":null,"stimulus":"<p style=\"font-size: 48px;\">+</p>","key_press":null,"Name":"fixation","trial_type":"html-keyboard-response","trial_index":40,"time_elapsed":212765,"internal_node_id":"0.0-40.0","participant_id":"A35K3YVCX1LVPE"},{"rt":null,"stimulus":"stimuli/63.jpg","button_pressed":null,"name":"noRating","trial_type":"image-button-response","trial_index":41,"time_elapsed":217768,"internal_node_id":"0.0-41.0","participant_id":"A35K3YVCX1LVPE"},{"rt":1272,"stimulus":"stimuli/63.jpg","button_pressed":"0","name":"valence","trial_type":"image-button-response","trial_index":42,"time_elapsed":219041,"internal_node_id":"0.0-42.0","participant_id":"A35K3YVCX1LVPE"},{"rt":4377,"response":"68","name":"rating","trial_type":"image-slider-response","trial_index":43,"time_elapsed":223418,"internal_node_id":"0.0-43.0","participant_id":"A35K3YVCX1LVPE"},{"rt":1649,"stimulus":"stimuli/63.jpg","button_pressed":"0","name":"emotionType","trial_type":"image-button-response","trial_index":44,"time_elapsed":225069,"internal_node_id":"0.0-44.0","participant_id":"A35K3YVCX1LVPE"},{"rt":null,"stimulus":"<p style=\"font-size: 48px;\">+</p>","key_press":null,"Name":"fixation","trial_type":"html-keyboard-response","trial_index":45,"time_elapsed":226070,"internal_node_id":"0.0-45.0","participant_id":"A35K3YVCX1LVPE"},{"rt":null,"stimulus":"stimuli/56.jpg","button_pressed":null,"name":"noRating","trial_type":"image-button-response","trial_index":46,"time_elapsed":231074,"internal_node_id":"0.0-46.0","participant_id":"A35K3YVCX1LVPE"},{"rt":1480,"stimulus":"stimuli/56.jpg","button_pressed":"0","name":"valence","trial_type":"image-button-response","trial_index":47,"time_elapsed":232555,"internal_node_id":"0.0-47.0","participant_id":"A35K3YVCX1LVPE"},{"rt":3070,"response":"80","name":"rating","trial_type":"image-slider-response","trial_index":48,"time_elapsed":235627,"internal_node_id":"0.0-48.0","participant_id":"A35K3YVCX1LVPE"},{"rt":2179,"stimulus":"stimuli/56.jpg","button_pressed":"0","name":"emotionType","trial_type":"image-button-response","trial_index":49,"time_elapsed":237808,"internal_node_id":"0.0-49.0","participant_id":"A35K3YVCX1LVPE"},{"rt":null,"stimulus":"<p style=\"font-size: 48px;\">+</p>","key_press":null,"Name":"fixation","trial_type":"html-keyboard-response","trial_index":50,"time_elapsed":239310,"internal_node_id":"0.0-50.0","participant_id":"A35K3YVCX1LVPE"},{"rt":null,"stimulus":"stimuli/32.jpg","button_pressed":null,"name":"noRating","trial_type":"image-button-response","trial_index":51,"time_elapsed":244311,"internal_node_id":"0.0-51.0","participant_id":"A35K3YVCX1LVPE"},{"rt":1161,"stimulus":"stimuli/32.jpg","button_pressed":"0","name":"valence","trial_type":"image-button-response","trial_index":52,"time_elapsed":245473,"internal_node_id":"0.0-52.0","participant_id":"A35K3YVCX1LVPE"},{"rt":3173,"response":"80","name":"rating","trial_type":"image-slider-response","trial_index":53,"time_elapsed":248647,"internal_node_id":"0.0-53.0","participant_id":"A35K3YVCX1LVPE"},{"rt":1567,"stimulus":"stimuli/32.jpg","button_pressed":"0","name":"emotionType","trial_type":"image-button-response","trial_index":54,"time_elapsed":250215,"internal_node_id":"0.0-54.0","participant_id":"A35K3YVCX1LVPE"},{"rt":null,"stimulus":"<p style=\"font-size: 48px;\">+</p>","key_press":null,"Name":"fixation","trial_type":"html-keyboard-response","trial_index":55,"time_elapsed":251218,"internal_node_id":"0.0-55.0","participant_id":"A35K3YVCX1LVPE"},{"rt":null,"stimulus":"stimuli/7.jpg","button_pressed":null,"name":"noRating","trial_type":"image-button-response","trial_index":56,"time_elapsed":256221,"internal_node_id":"0.0-56.0","participant_id":"A35K3YVCX1LVPE"},{"rt":1405,"stimulus":"stimuli/7.jpg","button_pressed":"0","name":"valence","trial_type":"image-button-response","trial_index":57,"time_elapsed":257627,"internal_node_id":"0.0-57.0","participant_id":"A35K3YVCX1LVPE"},{"rt":2516,"response":"71","name":"rating","trial_type":"image-slider-response","trial_index":58,"time_elapsed":260145,"internal_node_id":"0.0-58.0","participant_id":"A35K3YVCX1LVPE"},{"rt":1369,"stimulus":"stimuli/7.jpg","button_pressed":"0","name":"emotionType","trial_type":"image-button-response","trial_index":59,"time_elapsed":261515,"internal_node_id":"0.0-59.0","participant_id":"A35K3YVCX1LVPE"},{"rt":4426,"responses":"{\"Q0\":\"sky\"}","trial_type":"survey-text","trial_index":60,"time_elapsed":265943,"internal_node_id":"0.0-60.0-0.0","participant_id":"A35K3YVCX1LVPE"},{"rt":null,"stimulus":"<p style=\"font-size: 48px;\">+</p>","key_press":null,"Name":"fixation","trial_type":"html-keyboard-response","trial_index":61,"time_elapsed":267446,"internal_node_id":"0.0-61.0","participant_id":"A35K3YVCX1LVPE"},{"rt":null,"stimulus":"stimuli/34.jpg","button_pressed":null,"name":"noRating","trial_type":"image-button-response","trial_index":62,"time_elapsed":272447,"internal_node_id":"0.0-62.0","participant_id":"A35K3YVCX1LVPE"},{"rt":834,"stimulus":"stimuli/34.jpg","button_pressed":"0","name":"valence","trial_type":"image-button-response","trial_index":63,"time_elapsed":273283,"internal_node_id":"0.0-63.0","participant_id":"A35K3YVCX1LVPE"},{"rt":2043,"response":"97","name":"rating","trial_type":"image-slider-response","trial_index":64,"time_elapsed":275328,"internal_node_id":"0.0-64.0","participant_id":"A35K3YVCX1LVPE"},{"rt":1289,"stimulus":"stimuli/34.jpg","button_pressed":"0","name":"emotionType","trial_type":"image-button-response","trial_index":65,"time_elapsed":276619,"internal_node_id":"0.0-65.0","participant_id":"A35K3YVCX1LVPE"},{"rt":null,"stimulus":"<p style=\"font-size: 48px;\">+</p>","key_press":null,"Name":"fixation","trial_type":"html-keyboard-response","trial_index":66,"time_elapsed":277620,"internal_node_id":"0.0-66.0","participant_id":"A35K3YVCX1LVPE"},{"rt":null,"stimulus":"stimuli/10.jpg","button_pressed":null,"name":"noRating","trial_type":"image-button-response","trial_index":67,"time_elapsed":282621,"internal_node_id":"0.0-67.0","participant_id":"A35K3YVCX1LVPE"},{"rt":1363,"stimulus":"stimuli/10.jpg","button_pressed":"0","name":"valence","trial_type":"image-button-response","trial_index":68,"time_elapsed":283989,"internal_node_id":"0.0-68.0","participant_id":"A35K3YVCX1LVPE"},{"rt":4659,"response":"70","name":"rating","trial_type":"image-slider-response","trial_index":69,"time_elapsed":288649,"internal_node_id":"0.0-69.0","participant_id":"A35K3YVCX1LVPE"},{"rt":1361,"stimulus":"stimuli/10.jpg","button_pressed":"0","name":"emotionType","trial_type":"image-button-response","trial_index":70,"time_elapsed":290011,"internal_node_id":"0.0-70.0","participant_id":"A35K3YVCX1LVPE"},{"rt":null,"stimulus":"<p style=\"font-size: 48px;\">+</p>","key_press":null,"Name":"fixation","trial_type":"html-keyboard-response","trial_index":71,"time_elapsed":291013,"internal_node_id":"0.0-71.0","participant_id":"A35K3YVCX1LVPE"},{"rt":null,"stimulus":"stimuli/24.jpg","button_pressed":null,"name":"noRating","trial_type":"image-button-response","trial_index":72,"time_elapsed":296014,"internal_node_id":"0.0-72.0","participant_id":"A35K3YVCX1LVPE"},{"rt":1879,"stimulus":"stimuli/24.jpg","button_pressed":"0","name":"valence","trial_type":"image-button-response","trial_index":73,"time_elapsed":297895,"internal_node_id":"0.0-73.0","participant_id":"A35K3YVCX1LVPE"},{"rt":2019,"response":"79","name":"rating","trial_type":"image-slider-response","trial_index":74,"time_elapsed":299915,"internal_node_id":"0.0-74.0","participant_id":"A35K3YVCX1LVPE"},{"rt":1283,"stimulus":"stimuli/24.jpg","button_pressed":"1","name":"emotionType","trial_type":"image-button-response","trial_index":75,"time_elapsed":301201,"internal_node_id":"0.0-75.0","participant_id":"A35K3YVCX1LVPE"},{"rt":null,"stimulus":"<p style=\"font-size: 48px;\">+</p>","key_press":null,"Name":"fixation","trial_type":"html-keyboard-response","trial_index":76,"time_elapsed":302702,"internal_node_id":"0.0-76.0","participant_id":"A35K3YVCX1LVPE"},{"rt":null,"stimulus":"stimuli/1.jpg","button_pressed":null,"name":"noRating","trial_type":"image-button-response","trial_index":77,"time_elapsed":307705,"internal_node_id":"0.0-77.0","participant_id":"A35K3YVCX1LVPE"},{"rt":1409,"stimulus":"stimuli/1.jpg","button_pressed":"0","name":"valence","trial_type":"image-button-response","trial_index":78,"time_elapsed":309115,"internal_node_id":"0.0-78.0","participant_id":"A35K3YVCX1LVPE"},{"rt":2105,"response":"87","name":"rating","trial_type":"image-slider-response","trial_index":79,"time_elapsed":311223,"internal_node_id":"0.0-79.0","participant_id":"A35K3YVCX1LVPE"},{"rt":4150,"stimulus":"stimuli/1.jpg","button_pressed":"1","name":"emotionType","trial_type":"image-button-response","trial_index":80,"time_elapsed":315375,"internal_node_id":"0.0-80.0","participant_id":"A35K3YVCX1LVPE"},{"rt":null,"stimulus":"<p style=\"font-size: 48px;\">+</p>","key_press":null,"Name":"fixation","trial_type":"html-keyboard-response","trial_index":81,"time_elapsed":316877,"internal_node_id":"0.0-81.0","participant_id":"A35K3YVCX1LVPE"},{"rt":null,"stimulus":"stimuli/26.jpg","button_pressed":null,"name":"noRating","trial_type":"image-button-response","trial_index":82,"time_elapsed":321879,"internal_node_id":"0.0-82.0","participant_id":"A35K3YVCX1LVPE"},{"rt":1395,"stimulus":"stimuli/26.jpg","button_pressed":"0","name":"valence","trial_type":"image-button-response","trial_index":83,"time_elapsed":323277,"internal_node_id":"0.0-83.0","participant_id":"A35K3YVCX1LVPE"},{"rt":3252,"response":"84","name":"rating","trial_type":"image-slider-response","trial_index":84,"time_elapsed":326531,"internal_node_id":"0.0-84.0","participant_id":"A35K3YVCX1LVPE"},{"rt":1693,"stimulus":"stimuli/26.jpg","button_pressed":"0","name":"emotionType","trial_type":"image-button-response","trial_index":85,"time_elapsed":328225,"internal_node_id":"0.0-85.0","participant_id":"A35K3YVCX1LVPE"},{"rt":3772,"responses":"{\"Q0\":\"our\"}","trial_type":"survey-text","trial_index":86,"time_elapsed":331999,"internal_node_id":"0.0-86.0-0.0","participant_id":"A35K3YVCX1LVPE"},{"rt":null,"stimulus":"<p style=\"font-size: 48px;\">+</p>","key_press":null,"Name":"fixation","trial_type":"html-keyboard-response","trial_index":87,"time_elapsed":333500,"internal_node_id":"0.0-87.0","participant_id":"A35K3YVCX1LVPE"},{"rt":null,"stimulus":"stimuli/14.jpg","button_pressed":null,"name":"noRating","trial_type":"image-button-response","trial_index":88,"time_elapsed":338503,"internal_node_id":"0.0-88.0","participant_id":"A35K3YVCX1LVPE"},{"rt":1765,"stimulus":"stimuli/14.jpg","button_pressed":"0","name":"valence","trial_type":"image-button-response","trial_index":89,"time_elapsed":340271,"internal_node_id":"0.0-89.0","participant_id":"A35K3YVCX1LVPE"},{"rt":2529,"response":"82","name":"rating","trial_type":"image-slider-response","trial_index":90,"time_elapsed":342801,"internal_node_id":"0.0-90.0","participant_id":"A35K3YVCX1LVPE"},{"rt":1839,"stimulus":"stimuli/14.jpg","button_pressed":"1","name":"emotionType","trial_type":"image-button-response","trial_index":91,"time_elapsed":344641,"internal_node_id":"0.0-91.0","participant_id":"A35K3YVCX1LVPE"},{"rt":null,"stimulus":"<p style=\"font-size: 48px;\">+</p>","key_press":null,"Name":"fixation","trial_type":"html-keyboard-response","trial_index":92,"time_elapsed":345644,"internal_node_id":"0.0-92.0","participant_id":"A35K3YVCX1LVPE"},{"rt":null,"stimulus":"stimuli/33.jpg","button_pressed":null,"name":"noRating","trial_type":"image-button-response","trial_index":93,"time_elapsed":350647,"internal_node_id":"0.0-93.0","participant_id":"A35K3YVCX1LVPE"},{"rt":2759,"stimulus":"stimuli/33.jpg","button_pressed":"0","name":"valence","trial_type":"image-button-response","trial_index":94,"time_elapsed":353408,"internal_node_id":"0.0-94.0","participant_id":"A35K3YVCX1LVPE"},{"rt":3000,"response":"72","name":"rating","trial_type":"image-slider-response","trial_index":95,"time_elapsed":356409,"internal_node_id":"0.0-95.0","participant_id":"A35K3YVCX1LVPE"},{"rt":3102,"stimulus":"stimuli/33.jpg","button_pressed":"0","name":"emotionType","trial_type":"image-button-response","trial_index":96,"time_elapsed":359513,"internal_node_id":"0.0-96.0","participant_id":"A35K3YVCX1LVPE"},{"rt":null,"stimulus":"<p style=\"font-size: 48px;\">+</p>","key_press":null,"Name":"fixation","trial_type":"html-keyboard-response","trial_index":97,"time_elapsed":360015,"internal_node_id":"0.0-97.0","participant_id":"A35K3YVCX1LVPE"},{"rt":null,"stimulus":"stimuli/27.jpg","button_pressed":null,"name":"noRating","trial_type":"image-button-response","trial_index":98,"time_elapsed":365017,"internal_node_id":"0.0-98.0","participant_id":"A35K3YVCX1LVPE"},{"rt":1697,"stimulus":"stimuli/27.jpg","button_pressed":"0","name":"valence","trial_type":"image-button-response","trial_index":99,"time_elapsed":366717,"internal_node_id":"0.0-99.0","participant_id":"A35K3YVCX1LVPE"},{"rt":4618,"response":"77","name":"rating","trial_type":"image-slider-response","trial_index":100,"time_elapsed":371336,"internal_node_id":"0.0-100.0","participant_id":"A35K3YVCX1LVPE"},{"rt":3335,"stimulus":"stimuli/27.jpg","button_pressed":"2","name":"emotionType","trial_type":"image-button-response","trial_index":101,"time_elapsed":374673,"internal_node_id":"0.0-101.0","participant_id":"A35K3YVCX1LVPE"},{"rt":null,"stimulus":"<p style=\"font-size: 48px;\">+</p>","key_press":null,"Name":"fixation","trial_type":"html-keyboard-response","trial_index":102,"time_elapsed":376174,"internal_node_id":"0.0-102.0","participant_id":"A35K3YVCX1LVPE"},{"rt":null,"stimulus":"stimuli/40.jpg","button_pressed":null,"name":"noRating","trial_type":"image-button-response","trial_index":103,"time_elapsed":381176,"internal_node_id":"0.0-103.0","participant_id":"A35K3YVCX1LVPE"},{"rt":2359,"stimulus":"stimuli/40.jpg","button_pressed":"0","name":"valence","trial_type":"image-button-response","trial_index":104,"time_elapsed":383537,"internal_node_id":"0.0-104.0","participant_id":"A35K3YVCX1LVPE"},{"rt":2646,"response":"75","name":"rating","trial_type":"image-slider-response","trial_index":105,"time_elapsed":386184,"internal_node_id":"0.0-105.0","participant_id":"A35K3YVCX1LVPE"},{"rt":1575,"stimulus":"stimuli/40.jpg","button_pressed":"2","name":"emotionType","trial_type":"image-button-response","trial_index":106,"time_elapsed":387761,"internal_node_id":"0.0-106.0","participant_id":"A35K3YVCX1LVPE"},{"rt":null,"stimulus":"<p style=\"font-size: 48px;\">+</p>","key_press":null,"Name":"fixation","trial_type":"html-keyboard-response","trial_index":107,"time_elapsed":388763,"internal_node_id":"0.0-107.0","participant_id":"A35K3YVCX1LVPE"},{"rt":null,"stimulus":"stimuli/53.jpg","button_pressed":null,"name":"noRating","trial_type":"image-button-response","trial_index":108,"time_elapsed":393764,"internal_node_id":"0.0-108.0","participant_id":"A35K3YVCX1LVPE"},{"rt":2372,"stimulus":"stimuli/53.jpg","button_pressed":"0","name":"valence","trial_type":"image-button-response","trial_index":109,"time_elapsed":396136,"internal_node_id":"0.0-109.0","participant_id":"A35K3YVCX1LVPE"},{"rt":2501,"response":"79","name":"rating","trial_type":"image-slider-response","trial_index":110,"time_elapsed":398638,"internal_node_id":"0.0-110.0","participant_id":"A35K3YVCX1LVPE"},{"rt":1511,"stimulus":"stimuli/53.jpg","button_pressed":"1","name":"emotionType","trial_type":"image-button-response","trial_index":111,"time_elapsed":400150,"internal_node_id":"0.0-111.0","participant_id":"A35K3YVCX1LVPE"},{"rt":5531,"responses":"{\"Q0\":\"course\"}","trial_type":"survey-text","trial_index":112,"time_elapsed":405682,"internal_node_id":"0.0-112.0-0.0","participant_id":"A35K3YVCX1LVPE"},{"rt":null,"stimulus":"<p style=\"font-size: 48px;\">+</p>","key_press":null,"Name":"fixation","trial_type":"html-keyboard-response","trial_index":113,"time_elapsed":406685,"internal_node_id":"0.0-113.0","participant_id":"A35K3YVCX1LVPE"},{"rt":null,"stimulus":"stimuli/37.jpg","button_pressed":null,"name":"noRating","trial_type":"image-button-response","trial_index":114,"time_elapsed":411688,"internal_node_id":"0.0-114.0","participant_id":"A35K3YVCX1LVPE"},{"rt":1233,"stimulus":"stimuli/37.jpg","button_pressed":"0","name":"valence","trial_type":"image-button-response","trial_index":115,"time_elapsed":412922,"internal_node_id":"0.0-115.0","participant_id":"A35K3YVCX1LVPE"},{"rt":5365,"response":"82","name":"rating","trial_type":"image-slider-response","trial_index":116,"time_elapsed":418289,"internal_node_id":"0.0-116.0","participant_id":"A35K3YVCX1LVPE"},{"rt":1156,"stimulus":"stimuli/37.jpg","button_pressed":"0","name":"emotionType","trial_type":"image-button-response","trial_index":117,"time_elapsed":419447,"internal_node_id":"0.0-117.0","participant_id":"A35K3YVCX1LVPE"},{"rt":null,"stimulus":"<p style=\"font-size: 48px;\">+</p>","key_press":null,"Name":"fixation","trial_type":"html-keyboard-response","trial_index":118,"time_elapsed":420949,"internal_node_id":"0.0-118.0","participant_id":"A35K3YVCX1LVPE"},{"rt":null,"stimulus":"stimuli/69.jpg","button_pressed":null,"name":"noRating","trial_type":"image-button-response","trial_index":119,"time_elapsed":425952,"internal_node_id":"0.0-119.0","participant_id":"A35K3YVCX1LVPE"},{"rt":2372,"stimulus":"stimuli/69.jpg","button_pressed":"0","name":"valence","trial_type":"image-button-response","trial_index":120,"time_elapsed":428326,"internal_node_id":"0.0-120.0","participant_id":"A35K3YVCX1LVPE"},{"rt":2947,"response":"83","name":"rating","trial_type":"image-slider-response","trial_index":121,"time_elapsed":431275,"internal_node_id":"0.0-121.0","participant_id":"A35K3YVCX1LVPE"},{"rt":1511,"stimulus":"stimuli/69.jpg","button_pressed":"0","name":"emotionType","trial_type":"image-button-response","trial_index":122,"time_elapsed":432787,"internal_node_id":"0.0-122.0","participant_id":"A35K3YVCX1LVPE"},{"rt":null,"stimulus":"<p style=\"font-size: 48px;\">+</p>","key_press":null,"Name":"fixation","trial_type":"html-keyboard-response","trial_index":123,"time_elapsed":433290,"internal_node_id":"0.0-123.0","participant_id":"A35K3YVCX1LVPE"},{"rt":null,"stimulus":"stimuli/35.jpg","button_pressed":null,"name":"noRating","trial_type":"image-button-response","trial_index":124,"time_elapsed":438293,"internal_node_id":"0.0-124.0","participant_id":"A35K3YVCX1LVPE"},{"rt":1028,"stimulus":"stimuli/35.jpg","button_pressed":"0","name":"valence","trial_type":"image-button-response","trial_index":125,"time_elapsed":439323,"internal_node_id":"0.0-125.0","participant_id":"A35K3YVCX1LVPE"},{"rt":2590,"response":"89","name":"rating","trial_type":"image-slider-response","trial_index":126,"time_elapsed":441915,"internal_node_id":"0.0-126.0","participant_id":"A35K3YVCX1LVPE"},{"rt":2209,"stimulus":"stimuli/35.jpg","button_pressed":"1","name":"emotionType","trial_type":"image-button-response","trial_index":127,"time_elapsed":444125,"internal_node_id":"0.0-127.0","participant_id":"A35K3YVCX1LVPE"},{"rt":null,"stimulus":"<p style=\"font-size: 48px;\">+</p>","key_press":null,"Name":"fixation","trial_type":"html-keyboard-response","trial_index":128,"time_elapsed":445127,"internal_node_id":"0.0-128.0","participant_id":"A35K3YVCX1LVPE"},{"rt":null,"stimulus":"stimuli/57.jpg","button_pressed":null,"name":"noRating","trial_type":"image-button-response","trial_index":129,"time_elapsed":450131,"internal_node_id":"0.0-129.0","participant_id":"A35K3YVCX1LVPE"},{"rt":1397,"stimulus":"stimuli/57.jpg","button_pressed":"0","name":"valence","trial_type":"image-button-response","trial_index":130,"time_elapsed":451531,"internal_node_id":"0.0-130.0","participant_id":"A35K3YVCX1LVPE"},{"rt":4976,"response":"74","name":"rating","trial_type":"image-slider-response","trial_index":131,"time_elapsed":456509,"internal_node_id":"0.0-131.0","participant_id":"A35K3YVCX1LVPE"},{"rt":1835,"stimulus":"stimuli/57.jpg","button_pressed":"0","name":"emotionType","trial_type":"image-button-response","trial_index":132,"time_elapsed":458345,"internal_node_id":"0.0-132.0","participant_id":"A35K3YVCX1LVPE"},{"rt":null,"stimulus":"<p style=\"font-size: 48px;\">+</p>","key_press":null,"Name":"fixation","trial_type":"html-keyboard-response","trial_index":133,"time_elapsed":459847,"internal_node_id":"0.0-133.0","participant_id":"A35K3YVCX1LVPE"},{"rt":null,"stimulus":"stimuli/51.jpg","button_pressed":null,"name":"noRating","trial_type":"image-button-response","trial_index":134,"time_elapsed":464848,"internal_node_id":"0.0-134.0","participant_id":"A35K3YVCX1LVPE"},{"rt":1207,"stimulus":"stimuli/51.jpg","button_pressed":"0","name":"valence","trial_type":"image-button-response","trial_index":135,"time_elapsed":466057,"internal_node_id":"0.0-135.0","participant_id":"A35K3YVCX1LVPE"},{"rt":2858,"response":"95","name":"rating","trial_type":"image-slider-response","trial_index":136,"time_elapsed":468917,"internal_node_id":"0.0-136.0","participant_id":"A35K3YVCX1LVPE"},{"rt":1421,"stimulus":"stimuli/51.jpg","button_pressed":"0","name":"emotionType","trial_type":"image-button-response","trial_index":137,"time_elapsed":470339,"internal_node_id":"0.0-137.0","participant_id":"A35K3YVCX1LVPE"},{"rt":2681,"responses":"{\"Q0\":\"we\"}","trial_type":"survey-text","trial_index":138,"time_elapsed":473021,"internal_node_id":"0.0-138.0-0.0","participant_id":"A35K3YVCX1LVPE"},{"rt":null,"stimulus":"<p style=\"font-size: 48px;\">+</p>","key_press":null,"Name":"fixation","trial_type":"html-keyboard-response","trial_index":139,"time_elapsed":473527,"internal_node_id":"0.0-139.0","participant_id":"A35K3YVCX1LVPE"},{"rt":null,"stimulus":"stimuli/28.jpg","button_pressed":null,"name":"noRating","trial_type":"image-button-response","trial_index":140,"time_elapsed":478530,"internal_node_id":"0.0-140.0","participant_id":"A35K3YVCX1LVPE"},{"rt":1224,"stimulus":"stimuli/28.jpg","button_pressed":"0","name":"valence","trial_type":"image-button-response","trial_index":141,"time_elapsed":479755,"internal_node_id":"0.0-141.0","participant_id":"A35K3YVCX1LVPE"},{"rt":3934,"response":"68","name":"rating","trial_type":"image-slider-response","trial_index":142,"time_elapsed":483691,"internal_node_id":"0.0-142.0","participant_id":"A35K3YVCX1LVPE"},{"rt":2146,"stimulus":"stimuli/28.jpg","button_pressed":"0","name":"emotionType","trial_type":"image-button-response","trial_index":143,"time_elapsed":485839,"internal_node_id":"0.0-143.0","participant_id":"A35K3YVCX1LVPE"},{"rt":null,"stimulus":"<p style=\"font-size: 48px;\">+</p>","key_press":null,"Name":"fixation","trial_type":"html-keyboard-response","trial_index":144,"time_elapsed":487341,"internal_node_id":"0.0-144.0","participant_id":"A35K3YVCX1LVPE"},{"rt":null,"stimulus":"stimuli/43.jpg","button_pressed":null,"name":"noRating","trial_type":"image-button-response","trial_index":145,"time_elapsed":492343,"internal_node_id":"0.0-145.0","participant_id":"A35K3YVCX1LVPE"},{"rt":1083,"stimulus":"stimuli/43.jpg","button_pressed":"0","name":"valence","trial_type":"image-button-response","trial_index":146,"time_elapsed":493427,"internal_node_id":"0.0-146.0","participant_id":"A35K3YVCX1LVPE"},{"rt":2848,"response":"60","name":"rating","trial_type":"image-slider-response","trial_index":147,"time_elapsed":496277,"internal_node_id":"0.0-147.0","participant_id":"A35K3YVCX1LVPE"},{"rt":2662,"stimulus":"stimuli/43.jpg","button_pressed":"2","name":"emotionType","trial_type":"image-button-response","trial_index":148,"time_elapsed":498941,"internal_node_id":"0.0-148.0","participant_id":"A35K3YVCX1LVPE"},{"rt":null,"stimulus":"<p style=\"font-size: 48px;\">+</p>","key_press":null,"Name":"fixation","trial_type":"html-keyboard-response","trial_index":149,"time_elapsed":500443,"internal_node_id":"0.0-149.0","participant_id":"A35K3YVCX1LVPE"},{"rt":null,"stimulus":"stimuli/68.jpg","button_pressed":null,"name":"noRating","trial_type":"image-button-response","trial_index":150,"time_elapsed":506233,"internal_node_id":"0.0-150.0","participant_id":"A35K3YVCX1LVPE"},{"rt":14583,"stimulus":"stimuli/68.jpg","button_pressed":"0","name":"valence","trial_type":"image-button-response","trial_index":151,"time_elapsed":520817,"internal_node_id":"0.0-151.0","participant_id":"A35K3YVCX1LVPE"},{"rt":2370,"response":"57","name":"rating","trial_type":"image-slider-response","trial_index":152,"time_elapsed":523189,"internal_node_id":"0.0-152.0","participant_id":"A35K3YVCX1LVPE"},{"rt":1482,"stimulus":"stimuli/68.jpg","button_pressed":"2","name":"emotionType","trial_type":"image-button-response","trial_index":153,"time_elapsed":524673,"internal_node_id":"0.0-153.0","participant_id":"A35K3YVCX1LVPE"},{"rt":null,"stimulus":"<p style=\"font-size: 48px;\">+</p>","key_press":null,"Name":"fixation","trial_type":"html-keyboard-response","trial_index":154,"time_elapsed":525175,"internal_node_id":"0.0-154.0","participant_id":"A35K3YVCX1LVPE"},{"rt":null,"stimulus":"stimuli/4.jpg","button_pressed":null,"name":"noRating","trial_type":"image-button-response","trial_index":155,"time_elapsed":530179,"internal_node_id":"0.0-155.0","participant_id":"A35K3YVCX1LVPE"},{"rt":3606,"stimulus":"stimuli/4.jpg","button_pressed":"0","name":"valence","trial_type":"image-button-response","trial_index":156,"time_elapsed":533787,"internal_node_id":"0.0-156.0","participant_id":"A35K3YVCX1LVPE"},{"rt":2130,"response":"76","name":"rating","trial_type":"image-slider-response","trial_index":157,"time_elapsed":535919,"internal_node_id":"0.0-157.0","participant_id":"A35K3YVCX1LVPE"},{"rt":1882,"stimulus":"stimuli/4.jpg","button_pressed":"1","name":"emotionType","trial_type":"image-button-response","trial_index":158,"time_elapsed":537803,"internal_node_id":"0.0-158.0","participant_id":"A35K3YVCX1LVPE"},{"rt":null,"stimulus":"<p style=\"font-size: 48px;\">+</p>","key_press":null,"Name":"fixation","trial_type":"html-keyboard-response","trial_index":159,"time_elapsed":539304,"internal_node_id":"0.0-159.0","participant_id":"A35K3YVCX1LVPE"},{"rt":null,"stimulus":"stimuli/47.jpg","button_pressed":null,"name":"noRating","trial_type":"image-button-response","trial_index":160,"time_elapsed":544308,"internal_node_id":"0.0-160.0","participant_id":"A35K3YVCX1LVPE"},{"rt":2466,"stimulus":"stimuli/47.jpg","button_pressed":"0","name":"valence","trial_type":"image-button-response","trial_index":161,"time_elapsed":546777,"internal_node_id":"0.0-161.0","participant_id":"A35K3YVCX1LVPE"},{"rt":2676,"response":"82","name":"rating","trial_type":"image-slider-response","trial_index":162,"time_elapsed":549455,"internal_node_id":"0.0-162.0","participant_id":"A35K3YVCX1LVPE"},{"rt":1918,"stimulus":"stimuli/47.jpg","button_pressed":"0","name":"emotionType","trial_type":"image-button-response","trial_index":163,"time_elapsed":551375,"internal_node_id":"0.0-163.0","participant_id":"A35K3YVCX1LVPE"},{"rt":7312,"stimulus":"stimuli/ins/Slide8.JPG","button_pressed":"0","trial_type":"image-button-response","trial_index":164,"time_elapsed":558689,"internal_node_id":"0.0-164.0","participant_id":"A35K3YVCX1LVPE"}]