[{"rt":11825,"responses":"{\"Q0\":\"A3CXNQ5PNTNDMO\"}","trial_type":"survey-text","trial_index":0,"time_elapsed":11831,"internal_node_id":"0.0-0.0-0.0","participant_id":"A3CXNQ5PNTNDMO"},{"rt":4982,"stimulus":"stimuli/ins/Slide1.JPG","button_pressed":"0","Name":"instructions","trial_type":"image-button-response","trial_index":1,"time_elapsed":16815,"internal_node_id":"0.0-1.0","participant_id":"A3CXNQ5PNTNDMO"},{"rt":4118,"stimulus":"stimuli/ins/Slide2.JPG","button_pressed":"0","Name":"instructions","trial_type":"image-button-response","trial_index":2,"time_elapsed":20934,"internal_node_id":"0.0-2.0","participant_id":"A3CXNQ5PNTNDMO"},{"rt":8863,"stimulus":"stimuli/ins/Slide3.JPG","button_pressed":"0","Name":"instructions","trial_type":"image-button-response","trial_index":3,"time_elapsed":29799,"internal_node_id":"0.0-3.0","participant_id":"A3CXNQ5PNTNDMO"},{"rt":9751,"stimulus":"stimuli/ins/Slide4.JPG","button_pressed":"0","Name":"instructions","trial_type":"image-button-response","trial_index":4,"time_elapsed":39550,"internal_node_id":"0.0-4.0","participant_id":"A3CXNQ5PNTNDMO"},{"rt":5511,"stimulus":"stimuli/ins/Slide5.JPG","button_pressed":"0","Name":"instructions","trial_type":"image-button-response","trial_index":5,"time_elapsed":45062,"internal_node_id":"0.0-5.0","participant_id":"A3CXNQ5PNTNDMO"},{"rt":3543,"stimulus":"stimuli/ins/Slide6.JPG","button_pressed":"0","Name":"instructions","trial_type":"image-button-response","trial_index":6,"time_elapsed":48606,"internal_node_id":"0.0-6.0","participant_id":"A3CXNQ5PNTNDMO"},{"rt":1471,"stimulus":"stimuli/ins/Slide7.JPG","button_pressed":"0","Name":"instructions","trial_type":"image-button-response","trial_index":7,"time_elapsed":50078,"internal_node_id":"0.0-7.0","participant_id":"A3CXNQ5PNTNDMO"},{"rt":5279,"responses":"{\"Q0\":\"but\"}","trial_type":"survey-text","trial_index":8,"time_elapsed":55358,"internal_node_id":"0.0-8.0-0.0","participant_id":"A3CXNQ5PNTNDMO"},{"rt":null,"stimulus":"<p style=\"font-size: 48px;\">+</p>","key_press":null,"Name":"fixation","trial_type":"html-keyboard-response","trial_index":9,"time_elapsed":56360,"internal_node_id":"0.0-9.0","participant_id":"A3CXNQ5PNTNDMO"},{"rt":null,"stimulus":"stimuli/68.jpg","button_pressed":null,"name":"noRating","trial_type":"image-button-response","trial_index":10,"time_elapsed":61363,"internal_node_id":"0.0-10.0","participant_id":"A3CXNQ5PNTNDMO"},{"rt":1979,"stimulus":"stimuli/68.jpg","button_pressed":"0","name":"valence","trial_type":"image-button-response","trial_index":11,"time_elapsed":63343,"internal_node_id":"0.0-11.0","participant_id":"A3CXNQ5PNTNDMO"},{"rt":5030,"response":"68","name":"rating","trial_type":"image-slider-response","trial_index":12,"time_elapsed":68374,"internal_node_id":"0.0-12.0","participant_id":"A3CXNQ5PNTNDMO"},{"rt":3671,"stimulus":"stimuli/68.jpg","button_pressed":"2","name":"emotionType","trial_type":"image-button-response","trial_index":13,"time_elapsed":72046,"internal_node_id":"0.0-13.0","participant_id":"A3CXNQ5PNTNDMO"},{"rt":null,"stimulus":"<p style=\"font-size: 48px;\">+</p>","key_press":null,"Name":"fixation","trial_type":"html-keyboard-response","trial_index":14,"time_elapsed":73554,"internal_node_id":"0.0-14.0","participant_id":"A3CXNQ5PNTNDMO"},{"rt":null,"stimulus":"stimuli/26.jpg","button_pressed":null,"name":"noRating","trial_type":"image-button-response","trial_index":15,"time_elapsed":78556,"internal_node_id":"0.0-15.0","participant_id":"A3CXNQ5PNTNDMO"},{"rt":2120,"stimulus":"stimuli/26.jpg","button_pressed":"0","name":"valence","trial_type":"image-button-response","trial_index":16,"time_elapsed":80678,"internal_node_id":"0.0-16.0","participant_id":"A3CXNQ5PNTNDMO"},{"rt":5192,"response":"72","name":"rating","trial_type":"image-slider-response","trial_index":17,"time_elapsed":85870,"internal_node_id":"0.0-17.0","participant_id":"A3CXNQ5PNTNDMO"},{"rt":2415,"stimulus":"stimuli/26.jpg","button_pressed":"2","name":"emotionType","trial_type":"image-button-response","trial_index":18,"time_elapsed":88286,"internal_node_id":"0.0-18.0","participant_id":"A3CXNQ5PNTNDMO"},{"rt":null,"stimulus":"<p style=\"font-size: 48px;\">+</p>","key_press":null,"Name":"fixation","trial_type":"html-keyboard-response","trial_index":19,"time_elapsed":89787,"internal_node_id":"0.0-19.0","participant_id":"A3CXNQ5PNTNDMO"},{"rt":null,"stimulus":"stimuli/13.jpg","button_pressed":null,"name":"noRating","trial_type":"image-button-response","trial_index":20,"time_elapsed":94790,"internal_node_id":"0.0-20.0","participant_id":"A3CXNQ5PNTNDMO"},{"rt":1647,"stimulus":"stimuli/13.jpg","button_pressed":"0","name":"valence","trial_type":"image-button-response","trial_index":21,"time_elapsed":96438,"internal_node_id":"0.0-21.0","participant_id":"A3CXNQ5PNTNDMO"},{"rt":5230,"response":"70","name":"rating","trial_type":"image-slider-response","trial_index":22,"time_elapsed":101670,"internal_node_id":"0.0-22.0","participant_id":"A3CXNQ5PNTNDMO"},{"rt":3232,"stimulus":"stimuli/13.jpg","button_pressed":"2","name":"emotionType","trial_type":"image-button-response","trial_index":23,"time_elapsed":104902,"internal_node_id":"0.0-23.0","participant_id":"A3CXNQ5PNTNDMO"},{"rt":null,"stimulus":"<p style=\"font-size: 48px;\">+</p>","key_press":null,"Name":"fixation","trial_type":"html-keyboard-response","trial_index":24,"time_elapsed":105903,"internal_node_id":"0.0-24.0","participant_id":"A3CXNQ5PNTNDMO"},{"rt":null,"stimulus":"stimuli/11.jpg","button_pressed":null,"name":"noRating","trial_type":"image-button-response","trial_index":25,"time_elapsed":111293,"internal_node_id":"0.0-25.0","participant_id":"A3CXNQ5PNTNDMO"},{"rt":12032,"stimulus":"stimuli/11.jpg","button_pressed":"0","name":"valence","trial_type":"image-button-response","trial_index":26,"time_elapsed":123326,"internal_node_id":"0.0-26.0","participant_id":"A3CXNQ5PNTNDMO"},{"rt":3935,"response":"70","name":"rating","trial_type":"image-slider-response","trial_index":27,"time_elapsed":127262,"internal_node_id":"0.0-27.0","participant_id":"A3CXNQ5PNTNDMO"},{"rt":1415,"stimulus":"stimuli/11.jpg","button_pressed":"2","name":"emotionType","trial_type":"image-button-response","trial_index":28,"time_elapsed":128677,"internal_node_id":"0.0-28.0","participant_id":"A3CXNQ5PNTNDMO"},{"rt":null,"stimulus":"<p style=\"font-size: 48px;\">+</p>","key_press":null,"Name":"fixation","trial_type":"html-keyboard-response","trial_index":29,"time_elapsed":129679,"internal_node_id":"0.0-29.0","participant_id":"A3CXNQ5PNTNDMO"},{"rt":null,"stimulus":"stimuli/57.jpg","button_pressed":null,"name":"noRating","trial_type":"image-button-response","trial_index":30,"time_elapsed":134681,"internal_node_id":"0.0-30.0","participant_id":"A3CXNQ5PNTNDMO"},{"rt":2171,"stimulus":"stimuli/57.jpg","button_pressed":"2","name":"valence","trial_type":"image-button-response","trial_index":31,"time_elapsed":136854,"internal_node_id":"0.0-31.0","participant_id":"A3CXNQ5PNTNDMO"},{"rt":4103,"response":"60","name":"rating","trial_type":"image-slider-response","trial_index":32,"time_elapsed":140957,"internal_node_id":"0.0-32.0","participant_id":"A3CXNQ5PNTNDMO"},{"rt":2975,"stimulus":"stimuli/57.jpg","button_pressed":"2","name":"emotionType","trial_type":"image-button-response","trial_index":33,"time_elapsed":143934,"internal_node_id":"0.0-33.0","participant_id":"A3CXNQ5PNTNDMO"},{"rt":5799,"responses":"{\"Q0\":\"rock\"}","trial_type":"survey-text","trial_index":34,"time_elapsed":149734,"internal_node_id":"0.0-34.0-0.0","participant_id":"A3CXNQ5PNTNDMO"},{"rt":null,"stimulus":"<p style=\"font-size: 48px;\">+</p>","key_press":null,"Name":"fixation","trial_type":"html-keyboard-response","trial_index":35,"time_elapsed":150736,"internal_node_id":"0.0-35.0","participant_id":"A3CXNQ5PNTNDMO"},{"rt":null,"stimulus":"stimuli/51.jpg","button_pressed":null,"name":"noRating","trial_type":"image-button-response","trial_index":36,"time_elapsed":155738,"internal_node_id":"0.0-36.0","participant_id":"A3CXNQ5PNTNDMO"},{"rt":1283,"stimulus":"stimuli/51.jpg","button_pressed":"0","name":"valence","trial_type":"image-button-response","trial_index":37,"time_elapsed":157021,"internal_node_id":"0.0-37.0","participant_id":"A3CXNQ5PNTNDMO"},{"rt":5296,"response":"82","name":"rating","trial_type":"image-slider-response","trial_index":38,"time_elapsed":162318,"internal_node_id":"0.0-38.0","participant_id":"A3CXNQ5PNTNDMO"},{"rt":1239,"stimulus":"stimuli/51.jpg","button_pressed":"0","name":"emotionType","trial_type":"image-button-response","trial_index":39,"time_elapsed":163558,"internal_node_id":"0.0-39.0","participant_id":"A3CXNQ5PNTNDMO"},{"rt":null,"stimulus":"<p style=\"font-size: 48px;\">+</p>","key_press":null,"Name":"fixation","trial_type":"html-keyboard-response","trial_index":40,"time_elapsed":165061,"internal_node_id":"0.0-40.0","participant_id":"A3CXNQ5PNTNDMO"},{"rt":null,"stimulus":"stimuli/39.jpg","button_pressed":null,"name":"noRating","trial_type":"image-button-response","trial_index":41,"time_elapsed":170063,"internal_node_id":"0.0-41.0","participant_id":"A3CXNQ5PNTNDMO"},{"rt":1982,"stimulus":"stimuli/39.jpg","button_pressed":"0","name":"valence","trial_type":"image-button-response","trial_index":42,"time_elapsed":172046,"internal_node_id":"0.0-42.0","participant_id":"A3CXNQ5PNTNDMO"},{"rt":2951,"response":"75","name":"rating","trial_type":"image-slider-response","trial_index":43,"time_elapsed":174998,"internal_node_id":"0.0-43.0","participant_id":"A3CXNQ5PNTNDMO"},{"rt":2559,"stimulus":"stimuli/39.jpg","button_pressed":"0","name":"emotionType","trial_type":"image-button-response","trial_index":44,"time_elapsed":177558,"internal_node_id":"0.0-44.0","participant_id":"A3CXNQ5PNTNDMO"},{"rt":null,"stimulus":"<p style=\"font-size: 48px;\">+</p>","key_press":null,"Name":"fixation","trial_type":"html-keyboard-response","trial_index":45,"time_elapsed":179061,"internal_node_id":"0.0-45.0","participant_id":"A3CXNQ5PNTNDMO"},{"rt":null,"stimulus":"stimuli/37.jpg","button_pressed":null,"name":"noRating","trial_type":"image-button-response","trial_index":46,"time_elapsed":184292,"internal_node_id":"0.0-46.0","participant_id":"A3CXNQ5PNTNDMO"},{"rt":3640,"stimulus":"stimuli/37.jpg","button_pressed":"0","name":"valence","trial_type":"image-button-response","trial_index":47,"time_elapsed":187934,"internal_node_id":"0.0-47.0","participant_id":"A3CXNQ5PNTNDMO"},{"rt":5159,"response":"80","name":"rating","trial_type":"image-slider-response","trial_index":48,"time_elapsed":193094,"internal_node_id":"0.0-48.0","participant_id":"A3CXNQ5PNTNDMO"},{"rt":1886,"stimulus":"stimuli/37.jpg","button_pressed":"0","name":"emotionType","trial_type":"image-button-response","trial_index":49,"time_elapsed":194982,"internal_node_id":"0.0-49.0","participant_id":"A3CXNQ5PNTNDMO"},{"rt":null,"stimulus":"<p style=\"font-size: 48px;\">+</p>","key_press":null,"Name":"fixation","trial_type":"html-keyboard-response","trial_index":50,"time_elapsed":196483,"internal_node_id":"0.0-50.0","participant_id":"A3CXNQ5PNTNDMO"},{"rt":null,"stimulus":"stimuli/71.jpg","button_pressed":null,"name":"noRating","trial_type":"image-button-response","trial_index":51,"time_elapsed":202292,"internal_node_id":"0.0-51.0","participant_id":"A3CXNQ5PNTNDMO"},{"rt":4793,"stimulus":"stimuli/71.jpg","button_pressed":"0","name":"valence","trial_type":"image-button-response","trial_index":52,"time_elapsed":207086,"internal_node_id":"0.0-52.0","participant_id":"A3CXNQ5PNTNDMO"},{"rt":3743,"response":"76","name":"rating","trial_type":"image-slider-response","trial_index":53,"time_elapsed":210830,"internal_node_id":"0.0-53.0","participant_id":"A3CXNQ5PNTNDMO"},{"rt":2055,"stimulus":"stimuli/71.jpg","button_pressed":"2","name":"emotionType","trial_type":"image-button-response","trial_index":54,"time_elapsed":212886,"internal_node_id":"0.0-54.0","participant_id":"A3CXNQ5PNTNDMO"},{"rt":null,"stimulus":"<p style=\"font-size: 48px;\">+</p>","key_press":null,"Name":"fixation","trial_type":"html-keyboard-response","trial_index":55,"time_elapsed":214387,"internal_node_id":"0.0-55.0","participant_id":"A3CXNQ5PNTNDMO"},{"rt":null,"stimulus":"stimuli/38.jpg","button_pressed":null,"name":"noRating","trial_type":"image-button-response","trial_index":56,"time_elapsed":219389,"internal_node_id":"0.0-56.0","participant_id":"A3CXNQ5PNTNDMO"},{"rt":1384,"stimulus":"stimuli/38.jpg","button_pressed":"0","name":"valence","trial_type":"image-button-response","trial_index":57,"time_elapsed":220774,"internal_node_id":"0.0-57.0","participant_id":"A3CXNQ5PNTNDMO"},{"rt":4166,"response":"83","name":"rating","trial_type":"image-slider-response","trial_index":58,"time_elapsed":224941,"internal_node_id":"0.0-58.0","participant_id":"A3CXNQ5PNTNDMO"},{"rt":3504,"stimulus":"stimuli/38.jpg","button_pressed":"0","name":"emotionType","trial_type":"image-button-response","trial_index":59,"time_elapsed":228446,"internal_node_id":"0.0-59.0","participant_id":"A3CXNQ5PNTNDMO"},{"rt":4854,"responses":"{\"Q0\":\"sky\"}","trial_type":"survey-text","trial_index":60,"time_elapsed":233302,"internal_node_id":"0.0-60.0-0.0","participant_id":"A3CXNQ5PNTNDMO"},{"rt":null,"stimulus":"<p style=\"font-size: 48px;\">+</p>","key_press":null,"Name":"fixation","trial_type":"html-keyboard-response","trial_index":61,"time_elapsed":234804,"internal_node_id":"0.0-61.0","participant_id":"A3CXNQ5PNTNDMO"},{"rt":null,"stimulus":"stimuli/27.jpg","button_pressed":null,"name":"noRating","trial_type":"image-button-response","trial_index":62,"time_elapsed":239806,"internal_node_id":"0.0-62.0","participant_id":"A3CXNQ5PNTNDMO"},{"rt":1918,"stimulus":"stimuli/27.jpg","button_pressed":"0","name":"valence","trial_type":"image-button-response","trial_index":63,"time_elapsed":241726,"internal_node_id":"0.0-63.0","participant_id":"A3CXNQ5PNTNDMO"},{"rt":4199,"response":"76","name":"rating","trial_type":"image-slider-response","trial_index":64,"time_elapsed":245926,"internal_node_id":"0.0-64.0","participant_id":"A3CXNQ5PNTNDMO"},{"rt":1679,"stimulus":"stimuli/27.jpg","button_pressed":"2","name":"emotionType","trial_type":"image-button-response","trial_index":65,"time_elapsed":247606,"internal_node_id":"0.0-65.0","participant_id":"A3CXNQ5PNTNDMO"},{"rt":null,"stimulus":"<p style=\"font-size: 48px;\">+</p>","key_press":null,"Name":"fixation","trial_type":"html-keyboard-response","trial_index":66,"time_elapsed":248107,"internal_node_id":"0.0-66.0","participant_id":"A3CXNQ5PNTNDMO"},{"rt":null,"stimulus":"stimuli/7.jpg","button_pressed":null,"name":"noRating","trial_type":"image-button-response","trial_index":67,"time_elapsed":253110,"internal_node_id":"0.0-67.0","participant_id":"A3CXNQ5PNTNDMO"},{"rt":1459,"stimulus":"stimuli/7.jpg","button_pressed":"0","name":"valence","trial_type":"image-button-response","trial_index":68,"time_elapsed":254574,"internal_node_id":"0.0-68.0","participant_id":"A3CXNQ5PNTNDMO"},{"rt":3590,"response":"75","name":"rating","trial_type":"image-slider-response","trial_index":69,"time_elapsed":258165,"internal_node_id":"0.0-69.0","participant_id":"A3CXNQ5PNTNDMO"},{"rt":3111,"stimulus":"stimuli/7.jpg","button_pressed":"0","name":"emotionType","trial_type":"image-button-response","trial_index":70,"time_elapsed":261278,"internal_node_id":"0.0-70.0","participant_id":"A3CXNQ5PNTNDMO"},{"rt":null,"stimulus":"<p style=\"font-size: 48px;\">+</p>","key_press":null,"Name":"fixation","trial_type":"html-keyboard-response","trial_index":71,"time_elapsed":261779,"internal_node_id":"0.0-71.0","participant_id":"A3CXNQ5PNTNDMO"},{"rt":null,"stimulus":"stimuli/61.jpg","button_pressed":null,"name":"noRating","trial_type":"image-button-response","trial_index":72,"time_elapsed":266779,"internal_node_id":"0.0-72.0","participant_id":"A3CXNQ5PNTNDMO"},{"rt":2329,"stimulus":"stimuli/61.jpg","button_pressed":"0","name":"valence","trial_type":"image-button-response","trial_index":73,"time_elapsed":269109,"internal_node_id":"0.0-73.0","participant_id":"A3CXNQ5PNTNDMO"},{"rt":3423,"response":"73","name":"rating","trial_type":"image-slider-response","trial_index":74,"time_elapsed":272533,"internal_node_id":"0.0-74.0","participant_id":"A3CXNQ5PNTNDMO"},{"rt":1983,"stimulus":"stimuli/61.jpg","button_pressed":"2","name":"emotionType","trial_type":"image-button-response","trial_index":75,"time_elapsed":274517,"internal_node_id":"0.0-75.0","participant_id":"A3CXNQ5PNTNDMO"},{"rt":null,"stimulus":"<p style=\"font-size: 48px;\">+</p>","key_press":null,"Name":"fixation","trial_type":"html-keyboard-response","trial_index":76,"time_elapsed":276019,"internal_node_id":"0.0-76.0","participant_id":"A3CXNQ5PNTNDMO"},{"rt":null,"stimulus":"stimuli/12.jpg","button_pressed":null,"name":"noRating","trial_type":"image-button-response","trial_index":77,"time_elapsed":281020,"internal_node_id":"0.0-77.0","participant_id":"A3CXNQ5PNTNDMO"},{"rt":1457,"stimulus":"stimuli/12.jpg","button_pressed":"0","name":"valence","trial_type":"image-button-response","trial_index":78,"time_elapsed":282477,"internal_node_id":"0.0-78.0","participant_id":"A3CXNQ5PNTNDMO"},{"rt":3287,"response":"71","name":"rating","trial_type":"image-slider-response","trial_index":79,"time_elapsed":285765,"internal_node_id":"0.0-79.0","participant_id":"A3CXNQ5PNTNDMO"},{"rt":2031,"stimulus":"stimuli/12.jpg","button_pressed":"0","name":"emotionType","trial_type":"image-button-response","trial_index":80,"time_elapsed":287797,"internal_node_id":"0.0-80.0","participant_id":"A3CXNQ5PNTNDMO"},{"rt":null,"stimulus":"<p style=\"font-size: 48px;\">+</p>","key_press":null,"Name":"fixation","trial_type":"html-keyboard-response","trial_index":81,"time_elapsed":288799,"internal_node_id":"0.0-81.0","participant_id":"A3CXNQ5PNTNDMO"},{"rt":null,"stimulus":"stimuli/29.jpg","button_pressed":null,"name":"noRating","trial_type":"image-button-response","trial_index":82,"time_elapsed":293801,"internal_node_id":"0.0-82.0","participant_id":"A3CXNQ5PNTNDMO"},{"rt":1331,"stimulus":"stimuli/29.jpg","button_pressed":"0","name":"valence","trial_type":"image-button-response","trial_index":83,"time_elapsed":295134,"internal_node_id":"0.0-83.0","participant_id":"A3CXNQ5PNTNDMO"},{"rt":5607,"response":"73","name":"rating","trial_type":"image-slider-response","trial_index":84,"time_elapsed":300741,"internal_node_id":"0.0-84.0","participant_id":"A3CXNQ5PNTNDMO"},{"rt":1543,"stimulus":"stimuli/29.jpg","button_pressed":"0","name":"emotionType","trial_type":"image-button-response","trial_index":85,"time_elapsed":302285,"internal_node_id":"0.0-85.0","participant_id":"A3CXNQ5PNTNDMO"},{"rt":5431,"responses":"{\"Q0\":\"our\"}","trial_type":"survey-text","trial_index":86,"time_elapsed":307717,"internal_node_id":"0.0-86.0-0.0","participant_id":"A3CXNQ5PNTNDMO"},{"rt":null,"stimulus":"<p style=\"font-size: 48px;\">+</p>","key_press":null,"Name":"fixation","trial_type":"html-keyboard-response","trial_index":87,"time_elapsed":308719,"internal_node_id":"0.0-87.0","participant_id":"A3CXNQ5PNTNDMO"},{"rt":null,"stimulus":"stimuli/55.jpg","button_pressed":null,"name":"noRating","trial_type":"image-button-response","trial_index":88,"time_elapsed":313721,"internal_node_id":"0.0-88.0","participant_id":"A3CXNQ5PNTNDMO"},{"rt":1363,"stimulus":"stimuli/55.jpg","button_pressed":"0","name":"valence","trial_type":"image-button-response","trial_index":89,"time_elapsed":315085,"internal_node_id":"0.0-89.0","participant_id":"A3CXNQ5PNTNDMO"},{"rt":4351,"response":"77","name":"rating","trial_type":"image-slider-response","trial_index":90,"time_elapsed":319437,"internal_node_id":"0.0-90.0","participant_id":"A3CXNQ5PNTNDMO"},{"rt":3719,"stimulus":"stimuli/55.jpg","button_pressed":"0","name":"emotionType","trial_type":"image-button-response","trial_index":91,"time_elapsed":323158,"internal_node_id":"0.0-91.0","participant_id":"A3CXNQ5PNTNDMO"},{"rt":null,"stimulus":"<p style=\"font-size: 48px;\">+</p>","key_press":null,"Name":"fixation","trial_type":"html-keyboard-response","trial_index":92,"time_elapsed":324659,"internal_node_id":"0.0-92.0","participant_id":"A3CXNQ5PNTNDMO"},{"rt":null,"stimulus":"stimuli/20.jpg","button_pressed":null,"name":"noRating","trial_type":"image-button-response","trial_index":93,"time_elapsed":329659,"internal_node_id":"0.0-93.0","participant_id":"A3CXNQ5PNTNDMO"},{"rt":79192,"stimulus":"stimuli/20.jpg","button_pressed":"0","name":"valence","trial_type":"image-button-response","trial_index":94,"time_elapsed":408853,"internal_node_id":"0.0-94.0","participant_id":"A3CXNQ5PNTNDMO"},{"rt":3318,"response":"70","name":"rating","trial_type":"image-slider-response","trial_index":95,"time_elapsed":412173,"internal_node_id":"0.0-95.0","participant_id":"A3CXNQ5PNTNDMO"},{"rt":1032,"stimulus":"stimuli/20.jpg","button_pressed":"2","name":"emotionType","trial_type":"image-button-response","trial_index":96,"time_elapsed":413205,"internal_node_id":"0.0-96.0","participant_id":"A3CXNQ5PNTNDMO"},{"rt":null,"stimulus":"<p style=\"font-size: 48px;\">+</p>","key_press":null,"Name":"fixation","trial_type":"html-keyboard-response","trial_index":97,"time_elapsed":414206,"internal_node_id":"0.0-97.0","participant_id":"A3CXNQ5PNTNDMO"},{"rt":null,"stimulus":"stimuli/17.jpg","button_pressed":null,"name":"noRating","trial_type":"image-button-response","trial_index":98,"time_elapsed":419207,"internal_node_id":"0.0-98.0","participant_id":"A3CXNQ5PNTNDMO"},{"rt":1196,"stimulus":"stimuli/17.jpg","button_pressed":"0","name":"valence","trial_type":"image-button-response","trial_index":99,"time_elapsed":420405,"internal_node_id":"0.0-99.0","participant_id":"A3CXNQ5PNTNDMO"},{"rt":3808,"response":"75","name":"rating","trial_type":"image-slider-response","trial_index":100,"time_elapsed":424213,"internal_node_id":"0.0-100.0","participant_id":"A3CXNQ5PNTNDMO"},{"rt":1782,"stimulus":"stimuli/17.jpg","button_pressed":"0","name":"emotionType","trial_type":"image-button-response","trial_index":101,"time_elapsed":425997,"internal_node_id":"0.0-101.0","participant_id":"A3CXNQ5PNTNDMO"},{"rt":null,"stimulus":"<p style=\"font-size: 48px;\">+</p>","key_press":null,"Name":"fixation","trial_type":"html-keyboard-response","trial_index":102,"time_elapsed":426997,"internal_node_id":"0.0-102.0","participant_id":"A3CXNQ5PNTNDMO"},{"rt":null,"stimulus":"stimuli/4.jpg","button_pressed":null,"name":"noRating","trial_type":"image-button-response","trial_index":103,"time_elapsed":431999,"internal_node_id":"0.0-103.0","participant_id":"A3CXNQ5PNTNDMO"},{"rt":1437,"stimulus":"stimuli/4.jpg","button_pressed":"0","name":"valence","trial_type":"image-button-response","trial_index":104,"time_elapsed":433437,"internal_node_id":"0.0-104.0","participant_id":"A3CXNQ5PNTNDMO"},{"rt":3142,"response":"73","name":"rating","trial_type":"image-slider-response","trial_index":105,"time_elapsed":436581,"internal_node_id":"0.0-105.0","participant_id":"A3CXNQ5PNTNDMO"},{"rt":1408,"stimulus":"stimuli/4.jpg","button_pressed":"0","name":"emotionType","trial_type":"image-button-response","trial_index":106,"time_elapsed":437990,"internal_node_id":"0.0-106.0","participant_id":"A3CXNQ5PNTNDMO"},{"rt":null,"stimulus":"<p style=\"font-size: 48px;\">+</p>","key_press":null,"Name":"fixation","trial_type":"html-keyboard-response","trial_index":107,"time_elapsed":438991,"internal_node_id":"0.0-107.0","participant_id":"A3CXNQ5PNTNDMO"},{"rt":null,"stimulus":"stimuli/36.jpg","button_pressed":null,"name":"noRating","trial_type":"image-button-response","trial_index":108,"time_elapsed":443993,"internal_node_id":"0.0-108.0","participant_id":"A3CXNQ5PNTNDMO"},{"rt":1170,"stimulus":"stimuli/36.jpg","button_pressed":"0","name":"valence","trial_type":"image-button-response","trial_index":109,"time_elapsed":445165,"internal_node_id":"0.0-109.0","participant_id":"A3CXNQ5PNTNDMO"},{"rt":3239,"response":"78","name":"rating","trial_type":"image-slider-response","trial_index":110,"time_elapsed":448404,"internal_node_id":"0.0-110.0","participant_id":"A3CXNQ5PNTNDMO"},{"rt":1975,"stimulus":"stimuli/36.jpg","button_pressed":"2","name":"emotionType","trial_type":"image-button-response","trial_index":111,"time_elapsed":450381,"internal_node_id":"0.0-111.0","participant_id":"A3CXNQ5PNTNDMO"},{"rt":5175,"responses":"{\"Q0\":\"course\"}","trial_type":"survey-text","trial_index":112,"time_elapsed":455557,"internal_node_id":"0.0-112.0-0.0","participant_id":"A3CXNQ5PNTNDMO"},{"rt":null,"stimulus":"<p style=\"font-size: 48px;\">+</p>","key_press":null,"Name":"fixation","trial_type":"html-keyboard-response","trial_index":113,"time_elapsed":457058,"internal_node_id":"0.0-113.0","participant_id":"A3CXNQ5PNTNDMO"},{"rt":null,"stimulus":"stimuli/15.jpg","button_pressed":null,"name":"noRating","trial_type":"image-button-response","trial_index":114,"time_elapsed":462293,"internal_node_id":"0.0-114.0","participant_id":"A3CXNQ5PNTNDMO"},{"rt":34871,"stimulus":"stimuli/15.jpg","button_pressed":"0","name":"valence","trial_type":"image-button-response","trial_index":115,"time_elapsed":497164,"internal_node_id":"0.0-115.0","participant_id":"A3CXNQ5PNTNDMO"},{"rt":3639,"response":"75","name":"rating","trial_type":"image-slider-response","trial_index":116,"time_elapsed":500804,"internal_node_id":"0.0-116.0","participant_id":"A3CXNQ5PNTNDMO"},{"rt":1279,"stimulus":"stimuli/15.jpg","button_pressed":"2","name":"emotionType","trial_type":"image-button-response","trial_index":117,"time_elapsed":502084,"internal_node_id":"0.0-117.0","participant_id":"A3CXNQ5PNTNDMO"},{"rt":null,"stimulus":"<p style=\"font-size: 48px;\">+</p>","key_press":null,"Name":"fixation","trial_type":"html-keyboard-response","trial_index":118,"time_elapsed":503086,"internal_node_id":"0.0-118.0","participant_id":"A3CXNQ5PNTNDMO"},{"rt":null,"stimulus":"stimuli/41.jpg","button_pressed":null,"name":"noRating","trial_type":"image-button-response","trial_index":119,"time_elapsed":508088,"internal_node_id":"0.0-119.0","participant_id":"A3CXNQ5PNTNDMO"},{"rt":1131,"stimulus":"stimuli/41.jpg","button_pressed":"0","name":"valence","trial_type":"image-button-response","trial_index":120,"time_elapsed":509220,"internal_node_id":"0.0-120.0","participant_id":"A3CXNQ5PNTNDMO"},{"rt":3351,"response":"76","name":"rating","trial_type":"image-slider-response","trial_index":121,"time_elapsed":512572,"internal_node_id":"0.0-121.0","participant_id":"A3CXNQ5PNTNDMO"},{"rt":1263,"stimulus":"stimuli/41.jpg","button_pressed":"0","name":"emotionType","trial_type":"image-button-response","trial_index":122,"time_elapsed":513836,"internal_node_id":"0.0-122.0","participant_id":"A3CXNQ5PNTNDMO"},{"rt":null,"stimulus":"<p style=\"font-size: 48px;\">+</p>","key_press":null,"Name":"fixation","trial_type":"html-keyboard-response","trial_index":123,"time_elapsed":515337,"internal_node_id":"0.0-123.0","participant_id":"A3CXNQ5PNTNDMO"},{"rt":null,"stimulus":"stimuli/56.jpg","button_pressed":null,"name":"noRating","trial_type":"image-button-response","trial_index":124,"time_elapsed":520339,"internal_node_id":"0.0-124.0","participant_id":"A3CXNQ5PNTNDMO"},{"rt":1425,"stimulus":"stimuli/56.jpg","button_pressed":"0","name":"valence","trial_type":"image-button-response","trial_index":125,"time_elapsed":521764,"internal_node_id":"0.0-125.0","participant_id":"A3CXNQ5PNTNDMO"},{"rt":3575,"response":"78","name":"rating","trial_type":"image-slider-response","trial_index":126,"time_elapsed":525340,"internal_node_id":"0.0-126.0","participant_id":"A3CXNQ5PNTNDMO"},{"rt":959,"stimulus":"stimuli/56.jpg","button_pressed":"0","name":"emotionType","trial_type":"image-button-response","trial_index":127,"time_elapsed":526300,"internal_node_id":"0.0-127.0","participant_id":"A3CXNQ5PNTNDMO"},{"rt":null,"stimulus":"<p style=\"font-size: 48px;\">+</p>","key_press":null,"Name":"fixation","trial_type":"html-keyboard-response","trial_index":128,"time_elapsed":527801,"internal_node_id":"0.0-128.0","participant_id":"A3CXNQ5PNTNDMO"},{"rt":null,"stimulus":"stimuli/33.jpg","button_pressed":null,"name":"noRating","trial_type":"image-button-response","trial_index":129,"time_elapsed":532803,"internal_node_id":"0.0-129.0","participant_id":"A3CXNQ5PNTNDMO"},{"rt":1640,"stimulus":"stimuli/33.jpg","button_pressed":"0","name":"valence","trial_type":"image-button-response","trial_index":130,"time_elapsed":534445,"internal_node_id":"0.0-130.0","participant_id":"A3CXNQ5PNTNDMO"},{"rt":3183,"response":"74","name":"rating","trial_type":"image-slider-response","trial_index":131,"time_elapsed":537628,"internal_node_id":"0.0-131.0","participant_id":"A3CXNQ5PNTNDMO"},{"rt":1423,"stimulus":"stimuli/33.jpg","button_pressed":"2","name":"emotionType","trial_type":"image-button-response","trial_index":132,"time_elapsed":539052,"internal_node_id":"0.0-132.0","participant_id":"A3CXNQ5PNTNDMO"},{"rt":null,"stimulus":"<p style=\"font-size: 48px;\">+</p>","key_press":null,"Name":"fixation","trial_type":"html-keyboard-response","trial_index":133,"time_elapsed":540053,"internal_node_id":"0.0-133.0","participant_id":"A3CXNQ5PNTNDMO"},{"rt":null,"stimulus":"stimuli/18.jpg","button_pressed":null,"name":"noRating","trial_type":"image-button-response","trial_index":134,"time_elapsed":545056,"internal_node_id":"0.0-134.0","participant_id":"A3CXNQ5PNTNDMO"},{"rt":1315,"stimulus":"stimuli/18.jpg","button_pressed":"0","name":"valence","trial_type":"image-button-response","trial_index":135,"time_elapsed":546372,"internal_node_id":"0.0-135.0","participant_id":"A3CXNQ5PNTNDMO"},{"rt":3231,"response":"76","name":"rating","trial_type":"image-slider-response","trial_index":136,"time_elapsed":549604,"internal_node_id":"0.0-136.0","participant_id":"A3CXNQ5PNTNDMO"},{"rt":1655,"stimulus":"stimuli/18.jpg","button_pressed":"2","name":"emotionType","trial_type":"image-button-response","trial_index":137,"time_elapsed":551260,"internal_node_id":"0.0-137.0","participant_id":"A3CXNQ5PNTNDMO"},{"rt":4136,"responses":"{\"Q0\":\"we\"}","trial_type":"survey-text","trial_index":138,"time_elapsed":555396,"internal_node_id":"0.0-138.0-0.0","participant_id":"A3CXNQ5PNTNDMO"},{"rt":null,"stimulus":"<p style=\"font-size: 48px;\">+</p>","key_press":null,"Name":"fixation","trial_type":"html-keyboard-response","trial_index":139,"time_elapsed":556897,"internal_node_id":"0.0-139.0","participant_id":"A3CXNQ5PNTNDMO"},{"rt":null,"stimulus":"stimuli/58.jpg","button_pressed":null,"name":"noRating","trial_type":"image-button-response","trial_index":140,"time_elapsed":561899,"internal_node_id":"0.0-140.0","participant_id":"A3CXNQ5PNTNDMO"},{"rt":1152,"stimulus":"stimuli/58.jpg","button_pressed":"0","name":"valence","trial_type":"image-button-response","trial_index":141,"time_elapsed":563052,"internal_node_id":"0.0-141.0","participant_id":"A3CXNQ5PNTNDMO"},{"rt":4430,"response":"73","name":"rating","trial_type":"image-slider-response","trial_index":142,"time_elapsed":567484,"internal_node_id":"0.0-142.0","participant_id":"A3CXNQ5PNTNDMO"},{"rt":1568,"stimulus":"stimuli/58.jpg","button_pressed":"2","name":"emotionType","trial_type":"image-button-response","trial_index":143,"time_elapsed":569052,"internal_node_id":"0.0-143.0","participant_id":"A3CXNQ5PNTNDMO"},{"rt":null,"stimulus":"<p style=\"font-size: 48px;\">+</p>","key_press":null,"Name":"fixation","trial_type":"html-keyboard-response","trial_index":144,"time_elapsed":570553,"internal_node_id":"0.0-144.0","participant_id":"A3CXNQ5PNTNDMO"},{"rt":null,"stimulus":"stimuli/45.jpg","button_pressed":null,"name":"noRating","trial_type":"image-button-response","trial_index":145,"time_elapsed":575555,"internal_node_id":"0.0-145.0","participant_id":"A3CXNQ5PNTNDMO"},{"rt":1209,"stimulus":"stimuli/45.jpg","button_pressed":"0","name":"valence","trial_type":"image-button-response","trial_index":146,"time_elapsed":576764,"internal_node_id":"0.0-146.0","participant_id":"A3CXNQ5PNTNDMO"},{"rt":3879,"response":"77","name":"rating","trial_type":"image-slider-response","trial_index":147,"time_elapsed":580644,"internal_node_id":"0.0-147.0","participant_id":"A3CXNQ5PNTNDMO"},{"rt":1519,"stimulus":"stimuli/45.jpg","button_pressed":"2","name":"emotionType","trial_type":"image-button-response","trial_index":148,"time_elapsed":582164,"internal_node_id":"0.0-148.0","participant_id":"A3CXNQ5PNTNDMO"},{"rt":null,"stimulus":"<p style=\"font-size: 48px;\">+</p>","key_press":null,"Name":"fixation","trial_type":"html-keyboard-response","trial_index":149,"time_elapsed":583165,"internal_node_id":"0.0-149.0","participant_id":"A3CXNQ5PNTNDMO"},{"rt":null,"stimulus":"stimuli/67.jpg","button_pressed":null,"name":"noRating","trial_type":"image-button-response","trial_index":150,"time_elapsed":588168,"internal_node_id":"0.0-150.0","participant_id":"A3CXNQ5PNTNDMO"},{"rt":1323,"stimulus":"stimuli/67.jpg","button_pressed":"0","name":"valence","trial_type":"image-button-response","trial_index":151,"time_elapsed":589492,"internal_node_id":"0.0-151.0","participant_id":"A3CXNQ5PNTNDMO"},{"rt":2966,"response":"75","name":"rating","trial_type":"image-slider-response","trial_index":152,"time_elapsed":592460,"internal_node_id":"0.0-152.0","participant_id":"A3CXNQ5PNTNDMO"},{"rt":1175,"stimulus":"stimuli/67.jpg","button_pressed":"2","name":"emotionType","trial_type":"image-button-response","trial_index":153,"time_elapsed":593636,"internal_node_id":"0.0-153.0","participant_id":"A3CXNQ5PNTNDMO"},{"rt":null,"stimulus":"<p style=\"font-size: 48px;\">+</p>","key_press":null,"Name":"fixation","trial_type":"html-keyboard-response","trial_index":154,"time_elapsed":594637,"internal_node_id":"0.0-154.0","participant_id":"A3CXNQ5PNTNDMO"},{"rt":null,"stimulus":"stimuli/69.jpg","button_pressed":null,"name":"noRating","trial_type":"image-button-response","trial_index":155,"time_elapsed":599638,"internal_node_id":"0.0-155.0","participant_id":"A3CXNQ5PNTNDMO"},{"rt":1156,"stimulus":"stimuli/69.jpg","button_pressed":"0","name":"valence","trial_type":"image-button-response","trial_index":156,"time_elapsed":600796,"internal_node_id":"0.0-156.0","participant_id":"A3CXNQ5PNTNDMO"},{"rt":3550,"response":"76","name":"rating","trial_type":"image-slider-response","trial_index":157,"time_elapsed":604348,"internal_node_id":"0.0-157.0","participant_id":"A3CXNQ5PNTNDMO"},{"rt":2160,"stimulus":"stimuli/69.jpg","button_pressed":"0","name":"emotionType","trial_type":"image-button-response","trial_index":158,"time_elapsed":606508,"internal_node_id":"0.0-158.0","participant_id":"A3CXNQ5PNTNDMO"},{"rt":null,"stimulus":"<p style=\"font-size: 48px;\">+</p>","key_press":null,"Name":"fixation","trial_type":"html-keyboard-response","trial_index":159,"time_elapsed":608010,"internal_node_id":"0.0-159.0","participant_id":"A3CXNQ5PNTNDMO"},{"rt":null,"stimulus":"stimuli/52.jpg","button_pressed":null,"name":"noRating","trial_type":"image-button-response","trial_index":160,"time_elapsed":613013,"internal_node_id":"0.0-160.0","participant_id":"A3CXNQ5PNTNDMO"},{"rt":1837,"stimulus":"stimuli/52.jpg","button_pressed":"0","name":"valence","trial_type":"image-button-response","trial_index":161,"time_elapsed":614852,"internal_node_id":"0.0-161.0","participant_id":"A3CXNQ5PNTNDMO"},{"rt":3143,"response":"84","name":"rating","trial_type":"image-slider-response","trial_index":162,"time_elapsed":617996,"internal_node_id":"0.0-162.0","participant_id":"A3CXNQ5PNTNDMO"},{"rt":1639,"stimulus":"stimuli/52.jpg","button_pressed":"0","name":"emotionType","trial_type":"image-button-response","trial_index":163,"time_elapsed":619636,"internal_node_id":"0.0-163.0","participant_id":"A3CXNQ5PNTNDMO"},{"rt":2607,"stimulus":"stimuli/ins/Slide8.JPG","button_pressed":"0","trial_type":"image-button-response","trial_index":164,"time_elapsed":622244,"internal_node_id":"0.0-164.0","participant_id":"A3CXNQ5PNTNDMO"}]