[{"rt":2823,"responses":"{\"Q0\":\"A3EG4C9T4F5DUR\"}","trial_type":"survey-text","trial_index":0,"time_elapsed":2829,"internal_node_id":"0.0-0.0-0.0","participant_id":"A3EG4C9T4F5DUR"},{"rt":2242,"stimulus":"stimuli/ins/Slide1.JPG","button_pressed":"0","Name":"instructions","trial_type":"image-button-response","trial_index":1,"time_elapsed":5077,"internal_node_id":"0.0-1.0","participant_id":"A3EG4C9T4F5DUR"},{"rt":1874,"stimulus":"stimuli/ins/Slide2.JPG","button_pressed":"0","Name":"instructions","trial_type":"image-button-response","trial_index":2,"time_elapsed":6953,"internal_node_id":"0.0-2.0","participant_id":"A3EG4C9T4F5DUR"},{"rt":4421,"stimulus":"stimuli/ins/Slide3.JPG","button_pressed":"0","Name":"instructions","trial_type":"image-button-response","trial_index":3,"time_elapsed":11376,"internal_node_id":"0.0-3.0","participant_id":"A3EG4C9T4F5DUR"},{"rt":3394,"stimulus":"stimuli/ins/Slide4.JPG","button_pressed":"0","Name":"instructions","trial_type":"image-button-response","trial_index":4,"time_elapsed":14771,"internal_node_id":"0.0-4.0","participant_id":"A3EG4C9T4F5DUR"},{"rt":5716,"stimulus":"stimuli/ins/Slide5.JPG","button_pressed":"0","Name":"instructions","trial_type":"image-button-response","trial_index":5,"time_elapsed":20489,"internal_node_id":"0.0-5.0","participant_id":"A3EG4C9T4F5DUR"},{"rt":11498,"stimulus":"stimuli/ins/Slide6.JPG","button_pressed":"0","Name":"instructions","trial_type":"image-button-response","trial_index":6,"time_elapsed":31989,"internal_node_id":"0.0-6.0","participant_id":"A3EG4C9T4F5DUR"},{"rt":1809,"stimulus":"stimuli/ins/Slide7.JPG","button_pressed":"0","Name":"instructions","trial_type":"image-button-response","trial_index":7,"time_elapsed":33800,"internal_node_id":"0.0-7.0","participant_id":"A3EG4C9T4F5DUR"},{"rt":5229,"responses":"{\"Q0\":\"but\"}","trial_type":"survey-text","trial_index":8,"time_elapsed":39034,"internal_node_id":"0.0-8.0-0.0","participant_id":"A3EG4C9T4F5DUR"},{"rt":null,"stimulus":"<p style=\"font-size: 48px;\">+</p>","key_press":null,"Name":"fixation","trial_type":"html-keyboard-response","trial_index":9,"time_elapsed":40041,"internal_node_id":"0.0-9.0","participant_id":"A3EG4C9T4F5DUR"},{"rt":null,"stimulus":"stimuli/40.jpg","button_pressed":null,"name":"noRating","trial_type":"image-button-response","trial_index":10,"time_elapsed":45042,"internal_node_id":"0.0-10.0","participant_id":"A3EG4C9T4F5DUR"},{"rt":1600,"stimulus":"stimuli/40.jpg","button_pressed":"1","name":"valence","trial_type":"image-button-response","trial_index":11,"time_elapsed":46644,"internal_node_id":"0.0-11.0","participant_id":"A3EG4C9T4F5DUR"},{"rt":2946,"response":"69","name":"rating","trial_type":"image-slider-response","trial_index":12,"time_elapsed":49595,"internal_node_id":"0.0-12.0","participant_id":"A3EG4C9T4F5DUR"},{"rt":4098,"stimulus":"stimuli/40.jpg","button_pressed":"3","name":"emotionType","trial_type":"image-button-response","trial_index":13,"time_elapsed":53702,"internal_node_id":"0.0-13.0","participant_id":"A3EG4C9T4F5DUR"},{"rt":null,"stimulus":"<p style=\"font-size: 48px;\">+</p>","key_press":null,"Name":"fixation","trial_type":"html-keyboard-response","trial_index":14,"time_elapsed":55205,"internal_node_id":"0.0-14.0","participant_id":"A3EG4C9T4F5DUR"},{"rt":null,"stimulus":"stimuli/66.jpg","button_pressed":null,"name":"noRating","trial_type":"image-button-response","trial_index":15,"time_elapsed":60206,"internal_node_id":"0.0-15.0","participant_id":"A3EG4C9T4F5DUR"},{"rt":1561,"stimulus":"stimuli/66.jpg","button_pressed":"0","name":"valence","trial_type":"image-button-response","trial_index":16,"time_elapsed":61774,"internal_node_id":"0.0-16.0","participant_id":"A3EG4C9T4F5DUR"},{"rt":2886,"response":"91","name":"rating","trial_type":"image-slider-response","trial_index":17,"time_elapsed":64663,"internal_node_id":"0.0-17.0","participant_id":"A3EG4C9T4F5DUR"},{"rt":1599,"stimulus":"stimuli/66.jpg","button_pressed":"0","name":"emotionType","trial_type":"image-button-response","trial_index":18,"time_elapsed":66264,"internal_node_id":"0.0-18.0","participant_id":"A3EG4C9T4F5DUR"},{"rt":null,"stimulus":"<p style=\"font-size: 48px;\">+</p>","key_press":null,"Name":"fixation","trial_type":"html-keyboard-response","trial_index":19,"time_elapsed":67767,"internal_node_id":"0.0-19.0","participant_id":"A3EG4C9T4F5DUR"},{"rt":null,"stimulus":"stimuli/7.jpg","button_pressed":null,"name":"noRating","trial_type":"image-button-response","trial_index":20,"time_elapsed":72770,"internal_node_id":"0.0-20.0","participant_id":"A3EG4C9T4F5DUR"},{"rt":10257,"stimulus":"stimuli/7.jpg","button_pressed":"0","name":"valence","trial_type":"image-button-response","trial_index":21,"time_elapsed":83028,"internal_node_id":"0.0-21.0","participant_id":"A3EG4C9T4F5DUR"},{"rt":3679,"response":"94","name":"rating","trial_type":"image-slider-response","trial_index":22,"time_elapsed":86710,"internal_node_id":"0.0-22.0","participant_id":"A3EG4C9T4F5DUR"},{"rt":1408,"stimulus":"stimuli/7.jpg","button_pressed":"0","name":"emotionType","trial_type":"image-button-response","trial_index":23,"time_elapsed":88120,"internal_node_id":"0.0-23.0","participant_id":"A3EG4C9T4F5DUR"},{"rt":null,"stimulus":"<p style=\"font-size: 48px;\">+</p>","key_press":null,"Name":"fixation","trial_type":"html-keyboard-response","trial_index":24,"time_elapsed":89122,"internal_node_id":"0.0-24.0","participant_id":"A3EG4C9T4F5DUR"},{"rt":null,"stimulus":"stimuli/3.jpg","button_pressed":null,"name":"noRating","trial_type":"image-button-response","trial_index":25,"time_elapsed":94123,"internal_node_id":"0.0-25.0","participant_id":"A3EG4C9T4F5DUR"},{"rt":1519,"stimulus":"stimuli/3.jpg","button_pressed":"0","name":"valence","trial_type":"image-button-response","trial_index":26,"time_elapsed":95643,"internal_node_id":"0.0-26.0","participant_id":"A3EG4C9T4F5DUR"},{"rt":4776,"response":"92","name":"rating","trial_type":"image-slider-response","trial_index":27,"time_elapsed":100422,"internal_node_id":"0.0-27.0","participant_id":"A3EG4C9T4F5DUR"},{"rt":1272,"stimulus":"stimuli/3.jpg","button_pressed":"0","name":"emotionType","trial_type":"image-button-response","trial_index":28,"time_elapsed":101696,"internal_node_id":"0.0-28.0","participant_id":"A3EG4C9T4F5DUR"},{"rt":null,"stimulus":"<p style=\"font-size: 48px;\">+</p>","key_press":null,"Name":"fixation","trial_type":"html-keyboard-response","trial_index":29,"time_elapsed":102699,"internal_node_id":"0.0-29.0","participant_id":"A3EG4C9T4F5DUR"},{"rt":null,"stimulus":"stimuli/33.jpg","button_pressed":null,"name":"noRating","trial_type":"image-button-response","trial_index":30,"time_elapsed":107702,"internal_node_id":"0.0-30.0","participant_id":"A3EG4C9T4F5DUR"},{"rt":845,"stimulus":"stimuli/33.jpg","button_pressed":"0","name":"valence","trial_type":"image-button-response","trial_index":31,"time_elapsed":108548,"internal_node_id":"0.0-31.0","participant_id":"A3EG4C9T4F5DUR"},{"rt":2096,"response":"83","name":"rating","trial_type":"image-slider-response","trial_index":32,"time_elapsed":110647,"internal_node_id":"0.0-32.0","participant_id":"A3EG4C9T4F5DUR"},{"rt":867,"stimulus":"stimuli/33.jpg","button_pressed":"0","name":"emotionType","trial_type":"image-button-response","trial_index":33,"time_elapsed":111516,"internal_node_id":"0.0-33.0","participant_id":"A3EG4C9T4F5DUR"},{"rt":3721,"responses":"{\"Q0\":\"rock\"}","trial_type":"survey-text","trial_index":34,"time_elapsed":115240,"internal_node_id":"0.0-34.0-0.0","participant_id":"A3EG4C9T4F5DUR"},{"rt":null,"stimulus":"<p style=\"font-size: 48px;\">+</p>","key_press":null,"Name":"fixation","trial_type":"html-keyboard-response","trial_index":35,"time_elapsed":116742,"internal_node_id":"0.0-35.0","participant_id":"A3EG4C9T4F5DUR"},{"rt":null,"stimulus":"stimuli/65.jpg","button_pressed":null,"name":"noRating","trial_type":"image-button-response","trial_index":36,"time_elapsed":121744,"internal_node_id":"0.0-36.0","participant_id":"A3EG4C9T4F5DUR"},{"rt":1082,"stimulus":"stimuli/65.jpg","button_pressed":"0","name":"valence","trial_type":"image-button-response","trial_index":37,"time_elapsed":122827,"internal_node_id":"0.0-37.0","participant_id":"A3EG4C9T4F5DUR"},{"rt":2022,"response":"86","name":"rating","trial_type":"image-slider-response","trial_index":38,"time_elapsed":124850,"internal_node_id":"0.0-38.0","participant_id":"A3EG4C9T4F5DUR"},{"rt":2168,"stimulus":"stimuli/65.jpg","button_pressed":"0","name":"emotionType","trial_type":"image-button-response","trial_index":39,"time_elapsed":127022,"internal_node_id":"0.0-39.0","participant_id":"A3EG4C9T4F5DUR"},{"rt":null,"stimulus":"<p style=\"font-size: 48px;\">+</p>","key_press":null,"Name":"fixation","trial_type":"html-keyboard-response","trial_index":40,"time_elapsed":128524,"internal_node_id":"0.0-40.0","participant_id":"A3EG4C9T4F5DUR"},{"rt":null,"stimulus":"stimuli/37.jpg","button_pressed":null,"name":"noRating","trial_type":"image-button-response","trial_index":41,"time_elapsed":133527,"internal_node_id":"0.0-41.0","participant_id":"A3EG4C9T4F5DUR"},{"rt":1003,"stimulus":"stimuli/37.jpg","button_pressed":"0","name":"valence","trial_type":"image-button-response","trial_index":42,"time_elapsed":134532,"internal_node_id":"0.0-42.0","participant_id":"A3EG4C9T4F5DUR"},{"rt":2008,"response":"63","name":"rating","trial_type":"image-slider-response","trial_index":43,"time_elapsed":136543,"internal_node_id":"0.0-43.0","participant_id":"A3EG4C9T4F5DUR"},{"rt":1270,"stimulus":"stimuli/37.jpg","button_pressed":"0","name":"emotionType","trial_type":"image-button-response","trial_index":44,"time_elapsed":137815,"internal_node_id":"0.0-44.0","participant_id":"A3EG4C9T4F5DUR"},{"rt":null,"stimulus":"<p style=\"font-size: 48px;\">+</p>","key_press":null,"Name":"fixation","trial_type":"html-keyboard-response","trial_index":45,"time_elapsed":138317,"internal_node_id":"0.0-45.0","participant_id":"A3EG4C9T4F5DUR"},{"rt":null,"stimulus":"stimuli/68.jpg","button_pressed":null,"name":"noRating","trial_type":"image-button-response","trial_index":46,"time_elapsed":143319,"internal_node_id":"0.0-46.0","participant_id":"A3EG4C9T4F5DUR"},{"rt":1215,"stimulus":"stimuli/68.jpg","button_pressed":"0","name":"valence","trial_type":"image-button-response","trial_index":47,"time_elapsed":144535,"internal_node_id":"0.0-47.0","participant_id":"A3EG4C9T4F5DUR"},{"rt":1922,"response":"78","name":"rating","trial_type":"image-slider-response","trial_index":48,"time_elapsed":146459,"internal_node_id":"0.0-48.0","participant_id":"A3EG4C9T4F5DUR"},{"rt":750,"stimulus":"stimuli/68.jpg","button_pressed":"0","name":"emotionType","trial_type":"image-button-response","trial_index":49,"time_elapsed":147211,"internal_node_id":"0.0-49.0","participant_id":"A3EG4C9T4F5DUR"},{"rt":null,"stimulus":"<p style=\"font-size: 48px;\">+</p>","key_press":null,"Name":"fixation","trial_type":"html-keyboard-response","trial_index":50,"time_elapsed":148713,"internal_node_id":"0.0-50.0","participant_id":"A3EG4C9T4F5DUR"},{"rt":null,"stimulus":"stimuli/62.jpg","button_pressed":null,"name":"noRating","trial_type":"image-button-response","trial_index":51,"time_elapsed":153715,"internal_node_id":"0.0-51.0","participant_id":"A3EG4C9T4F5DUR"},{"rt":1186,"stimulus":"stimuli/62.jpg","button_pressed":"0","name":"valence","trial_type":"image-button-response","trial_index":52,"time_elapsed":154903,"internal_node_id":"0.0-52.0","participant_id":"A3EG4C9T4F5DUR"},{"rt":1537,"response":"93","name":"rating","trial_type":"image-slider-response","trial_index":53,"time_elapsed":156442,"internal_node_id":"0.0-53.0","participant_id":"A3EG4C9T4F5DUR"},{"rt":654,"stimulus":"stimuli/62.jpg","button_pressed":"0","name":"emotionType","trial_type":"image-button-response","trial_index":54,"time_elapsed":157099,"internal_node_id":"0.0-54.0","participant_id":"A3EG4C9T4F5DUR"},{"rt":null,"stimulus":"<p style=\"font-size: 48px;\">+</p>","key_press":null,"Name":"fixation","trial_type":"html-keyboard-response","trial_index":55,"time_elapsed":158105,"internal_node_id":"0.0-55.0","participant_id":"A3EG4C9T4F5DUR"},{"rt":null,"stimulus":"stimuli/42.jpg","button_pressed":null,"name":"noRating","trial_type":"image-button-response","trial_index":56,"time_elapsed":163109,"internal_node_id":"0.0-56.0","participant_id":"A3EG4C9T4F5DUR"},{"rt":4206,"stimulus":"stimuli/42.jpg","button_pressed":"0","name":"valence","trial_type":"image-button-response","trial_index":57,"time_elapsed":167316,"internal_node_id":"0.0-57.0","participant_id":"A3EG4C9T4F5DUR"},{"rt":1454,"response":"74","name":"rating","trial_type":"image-slider-response","trial_index":58,"time_elapsed":168771,"internal_node_id":"0.0-58.0","participant_id":"A3EG4C9T4F5DUR"},{"rt":662,"stimulus":"stimuli/42.jpg","button_pressed":"0","name":"emotionType","trial_type":"image-button-response","trial_index":59,"time_elapsed":169435,"internal_node_id":"0.0-59.0","participant_id":"A3EG4C9T4F5DUR"},{"rt":2956,"responses":"{\"Q0\":\"sky\"}","trial_type":"survey-text","trial_index":60,"time_elapsed":172395,"internal_node_id":"0.0-60.0-0.0","participant_id":"A3EG4C9T4F5DUR"},{"rt":null,"stimulus":"<p style=\"font-size: 48px;\">+</p>","key_press":null,"Name":"fixation","trial_type":"html-keyboard-response","trial_index":61,"time_elapsed":173397,"internal_node_id":"0.0-61.0","participant_id":"A3EG4C9T4F5DUR"},{"rt":null,"stimulus":"stimuli/71.jpg","button_pressed":null,"name":"noRating","trial_type":"image-button-response","trial_index":62,"time_elapsed":178403,"internal_node_id":"0.0-62.0","participant_id":"A3EG4C9T4F5DUR"},{"rt":1213,"stimulus":"stimuli/71.jpg","button_pressed":"0","name":"valence","trial_type":"image-button-response","trial_index":63,"time_elapsed":179620,"internal_node_id":"0.0-63.0","participant_id":"A3EG4C9T4F5DUR"},{"rt":1745,"response":"85","name":"rating","trial_type":"image-slider-response","trial_index":64,"time_elapsed":181368,"internal_node_id":"0.0-64.0","participant_id":"A3EG4C9T4F5DUR"},{"rt":750,"stimulus":"stimuli/71.jpg","button_pressed":"0","name":"emotionType","trial_type":"image-button-response","trial_index":65,"time_elapsed":182120,"internal_node_id":"0.0-65.0","participant_id":"A3EG4C9T4F5DUR"},{"rt":null,"stimulus":"<p style=\"font-size: 48px;\">+</p>","key_press":null,"Name":"fixation","trial_type":"html-keyboard-response","trial_index":66,"time_elapsed":183122,"internal_node_id":"0.0-66.0","participant_id":"A3EG4C9T4F5DUR"},{"rt":null,"stimulus":"stimuli/46.jpg","button_pressed":null,"name":"noRating","trial_type":"image-button-response","trial_index":67,"time_elapsed":188123,"internal_node_id":"0.0-67.0","participant_id":"A3EG4C9T4F5DUR"},{"rt":1402,"stimulus":"stimuli/46.jpg","button_pressed":"0","name":"valence","trial_type":"image-button-response","trial_index":68,"time_elapsed":189528,"internal_node_id":"0.0-68.0","participant_id":"A3EG4C9T4F5DUR"},{"rt":1710,"response":"86","name":"rating","trial_type":"image-slider-response","trial_index":69,"time_elapsed":191240,"internal_node_id":"0.0-69.0","participant_id":"A3EG4C9T4F5DUR"},{"rt":898,"stimulus":"stimuli/46.jpg","button_pressed":"0","name":"emotionType","trial_type":"image-button-response","trial_index":70,"time_elapsed":192140,"internal_node_id":"0.0-70.0","participant_id":"A3EG4C9T4F5DUR"},{"rt":null,"stimulus":"<p style=\"font-size: 48px;\">+</p>","key_press":null,"Name":"fixation","trial_type":"html-keyboard-response","trial_index":71,"time_elapsed":193642,"internal_node_id":"0.0-71.0","participant_id":"A3EG4C9T4F5DUR"},{"rt":null,"stimulus":"stimuli/2.jpg","button_pressed":null,"name":"noRating","trial_type":"image-button-response","trial_index":72,"time_elapsed":198644,"internal_node_id":"0.0-72.0","participant_id":"A3EG4C9T4F5DUR"},{"rt":1359,"stimulus":"stimuli/2.jpg","button_pressed":"0","name":"valence","trial_type":"image-button-response","trial_index":73,"time_elapsed":200005,"internal_node_id":"0.0-73.0","participant_id":"A3EG4C9T4F5DUR"},{"rt":2124,"response":"100","name":"rating","trial_type":"image-slider-response","trial_index":74,"time_elapsed":202132,"internal_node_id":"0.0-74.0","participant_id":"A3EG4C9T4F5DUR"},{"rt":979,"stimulus":"stimuli/2.jpg","button_pressed":"0","name":"emotionType","trial_type":"image-button-response","trial_index":75,"time_elapsed":203113,"internal_node_id":"0.0-75.0","participant_id":"A3EG4C9T4F5DUR"},{"rt":null,"stimulus":"<p style=\"font-size: 48px;\">+</p>","key_press":null,"Name":"fixation","trial_type":"html-keyboard-response","trial_index":76,"time_elapsed":203617,"internal_node_id":"0.0-76.0","participant_id":"A3EG4C9T4F5DUR"},{"rt":null,"stimulus":"stimuli/9.jpg","button_pressed":null,"name":"noRating","trial_type":"image-button-response","trial_index":77,"time_elapsed":208620,"internal_node_id":"0.0-77.0","participant_id":"A3EG4C9T4F5DUR"},{"rt":873,"stimulus":"stimuli/9.jpg","button_pressed":"0","name":"valence","trial_type":"image-button-response","trial_index":78,"time_elapsed":209495,"internal_node_id":"0.0-78.0","participant_id":"A3EG4C9T4F5DUR"},{"rt":2313,"response":"71","name":"rating","trial_type":"image-slider-response","trial_index":79,"time_elapsed":211811,"internal_node_id":"0.0-79.0","participant_id":"A3EG4C9T4F5DUR"},{"rt":5191,"stimulus":"stimuli/9.jpg","button_pressed":"0","name":"emotionType","trial_type":"image-button-response","trial_index":80,"time_elapsed":217005,"internal_node_id":"0.0-80.0","participant_id":"A3EG4C9T4F5DUR"},{"rt":null,"stimulus":"<p style=\"font-size: 48px;\">+</p>","key_press":null,"Name":"fixation","trial_type":"html-keyboard-response","trial_index":81,"time_elapsed":218010,"internal_node_id":"0.0-81.0","participant_id":"A3EG4C9T4F5DUR"},{"rt":null,"stimulus":"stimuli/35.jpg","button_pressed":null,"name":"noRating","trial_type":"image-button-response","trial_index":82,"time_elapsed":223011,"internal_node_id":"0.0-82.0","participant_id":"A3EG4C9T4F5DUR"},{"rt":4242,"stimulus":"stimuli/35.jpg","button_pressed":"0","name":"valence","trial_type":"image-button-response","trial_index":83,"time_elapsed":227255,"internal_node_id":"0.0-83.0","participant_id":"A3EG4C9T4F5DUR"},{"rt":2690,"response":"65","name":"rating","trial_type":"image-slider-response","trial_index":84,"time_elapsed":229947,"internal_node_id":"0.0-84.0","participant_id":"A3EG4C9T4F5DUR"},{"rt":2274,"stimulus":"stimuli/35.jpg","button_pressed":"1","name":"emotionType","trial_type":"image-button-response","trial_index":85,"time_elapsed":232223,"internal_node_id":"0.0-85.0","participant_id":"A3EG4C9T4F5DUR"},{"rt":3050,"responses":"{\"Q0\":\"our\"}","trial_type":"survey-text","trial_index":86,"time_elapsed":235275,"internal_node_id":"0.0-86.0-0.0","participant_id":"A3EG4C9T4F5DUR"},{"rt":null,"stimulus":"<p style=\"font-size: 48px;\">+</p>","key_press":null,"Name":"fixation","trial_type":"html-keyboard-response","trial_index":87,"time_elapsed":236777,"internal_node_id":"0.0-87.0","participant_id":"A3EG4C9T4F5DUR"},{"rt":null,"stimulus":"stimuli/30.jpg","button_pressed":null,"name":"noRating","trial_type":"image-button-response","trial_index":88,"time_elapsed":241779,"internal_node_id":"0.0-88.0","participant_id":"A3EG4C9T4F5DUR"},{"rt":8294,"stimulus":"stimuli/30.jpg","button_pressed":"0","name":"valence","trial_type":"image-button-response","trial_index":89,"time_elapsed":250075,"internal_node_id":"0.0-89.0","participant_id":"A3EG4C9T4F5DUR"},{"rt":1854,"response":"100","name":"rating","trial_type":"image-slider-response","trial_index":90,"time_elapsed":251931,"internal_node_id":"0.0-90.0","participant_id":"A3EG4C9T4F5DUR"},{"rt":707,"stimulus":"stimuli/30.jpg","button_pressed":"1","name":"emotionType","trial_type":"image-button-response","trial_index":91,"time_elapsed":252640,"internal_node_id":"0.0-91.0","participant_id":"A3EG4C9T4F5DUR"},{"rt":null,"stimulus":"<p style=\"font-size: 48px;\">+</p>","key_press":null,"Name":"fixation","trial_type":"html-keyboard-response","trial_index":92,"time_elapsed":253142,"internal_node_id":"0.0-92.0","participant_id":"A3EG4C9T4F5DUR"},{"rt":null,"stimulus":"stimuli/36.jpg","button_pressed":null,"name":"noRating","trial_type":"image-button-response","trial_index":93,"time_elapsed":258143,"internal_node_id":"0.0-93.0","participant_id":"A3EG4C9T4F5DUR"},{"rt":900,"stimulus":"stimuli/36.jpg","button_pressed":"0","name":"valence","trial_type":"image-button-response","trial_index":94,"time_elapsed":259046,"internal_node_id":"0.0-94.0","participant_id":"A3EG4C9T4F5DUR"},{"rt":1943,"response":"91","name":"rating","trial_type":"image-slider-response","trial_index":95,"time_elapsed":260991,"internal_node_id":"0.0-95.0","participant_id":"A3EG4C9T4F5DUR"},{"rt":722,"stimulus":"stimuli/36.jpg","button_pressed":"1","name":"emotionType","trial_type":"image-button-response","trial_index":96,"time_elapsed":261716,"internal_node_id":"0.0-96.0","participant_id":"A3EG4C9T4F5DUR"},{"rt":null,"stimulus":"<p style=\"font-size: 48px;\">+</p>","key_press":null,"Name":"fixation","trial_type":"html-keyboard-response","trial_index":97,"time_elapsed":263220,"internal_node_id":"0.0-97.0","participant_id":"A3EG4C9T4F5DUR"},{"rt":null,"stimulus":"stimuli/34.jpg","button_pressed":null,"name":"noRating","trial_type":"image-button-response","trial_index":98,"time_elapsed":268221,"internal_node_id":"0.0-98.0","participant_id":"A3EG4C9T4F5DUR"},{"rt":819,"stimulus":"stimuli/34.jpg","button_pressed":"0","name":"valence","trial_type":"image-button-response","trial_index":99,"time_elapsed":269043,"internal_node_id":"0.0-99.0","participant_id":"A3EG4C9T4F5DUR"},{"rt":1650,"response":"98","name":"rating","trial_type":"image-slider-response","trial_index":100,"time_elapsed":270695,"internal_node_id":"0.0-100.0","participant_id":"A3EG4C9T4F5DUR"},{"rt":845,"stimulus":"stimuli/34.jpg","button_pressed":"0","name":"emotionType","trial_type":"image-button-response","trial_index":101,"time_elapsed":271543,"internal_node_id":"0.0-101.0","participant_id":"A3EG4C9T4F5DUR"},{"rt":null,"stimulus":"<p style=\"font-size: 48px;\">+</p>","key_press":null,"Name":"fixation","trial_type":"html-keyboard-response","trial_index":102,"time_elapsed":273044,"internal_node_id":"0.0-102.0","participant_id":"A3EG4C9T4F5DUR"},{"rt":null,"stimulus":"stimuli/50.jpg","button_pressed":null,"name":"noRating","trial_type":"image-button-response","trial_index":103,"time_elapsed":278047,"internal_node_id":"0.0-103.0","participant_id":"A3EG4C9T4F5DUR"},{"rt":758,"stimulus":"stimuli/50.jpg","button_pressed":"0","name":"valence","trial_type":"image-button-response","trial_index":104,"time_elapsed":278808,"internal_node_id":"0.0-104.0","participant_id":"A3EG4C9T4F5DUR"},{"rt":1493,"response":"96","name":"rating","trial_type":"image-slider-response","trial_index":105,"time_elapsed":280302,"internal_node_id":"0.0-105.0","participant_id":"A3EG4C9T4F5DUR"},{"rt":667,"stimulus":"stimuli/50.jpg","button_pressed":"1","name":"emotionType","trial_type":"image-button-response","trial_index":106,"time_elapsed":280972,"internal_node_id":"0.0-106.0","participant_id":"A3EG4C9T4F5DUR"},{"rt":null,"stimulus":"<p style=\"font-size: 48px;\">+</p>","key_press":null,"Name":"fixation","trial_type":"html-keyboard-response","trial_index":107,"time_elapsed":282475,"internal_node_id":"0.0-107.0","participant_id":"A3EG4C9T4F5DUR"},{"rt":null,"stimulus":"stimuli/4.jpg","button_pressed":null,"name":"noRating","trial_type":"image-button-response","trial_index":108,"time_elapsed":287484,"internal_node_id":"0.0-108.0","participant_id":"A3EG4C9T4F5DUR"},{"rt":1414,"stimulus":"stimuli/4.jpg","button_pressed":"0","name":"valence","trial_type":"image-button-response","trial_index":109,"time_elapsed":288901,"internal_node_id":"0.0-109.0","participant_id":"A3EG4C9T4F5DUR"},{"rt":2770,"response":"78","name":"rating","trial_type":"image-slider-response","trial_index":110,"time_elapsed":291676,"internal_node_id":"0.0-110.0","participant_id":"A3EG4C9T4F5DUR"},{"rt":1549,"stimulus":"stimuli/4.jpg","button_pressed":"0","name":"emotionType","trial_type":"image-button-response","trial_index":111,"time_elapsed":293227,"internal_node_id":"0.0-111.0","participant_id":"A3EG4C9T4F5DUR"},{"rt":6122,"responses":"{\"Q0\":\"course\"}","trial_type":"survey-text","trial_index":112,"time_elapsed":299350,"internal_node_id":"0.0-112.0-0.0","participant_id":"A3EG4C9T4F5DUR"},{"rt":null,"stimulus":"<p style=\"font-size: 48px;\">+</p>","key_press":null,"Name":"fixation","trial_type":"html-keyboard-response","trial_index":113,"time_elapsed":299852,"internal_node_id":"0.0-113.0","participant_id":"A3EG4C9T4F5DUR"},{"rt":null,"stimulus":"stimuli/5.jpg","button_pressed":null,"name":"noRating","trial_type":"image-button-response","trial_index":114,"time_elapsed":304855,"internal_node_id":"0.0-114.0","participant_id":"A3EG4C9T4F5DUR"},{"rt":2947,"stimulus":"stimuli/5.jpg","button_pressed":"0","name":"valence","trial_type":"image-button-response","trial_index":115,"time_elapsed":307804,"internal_node_id":"0.0-115.0","participant_id":"A3EG4C9T4F5DUR"},{"rt":1632,"response":"90","name":"rating","trial_type":"image-slider-response","trial_index":116,"time_elapsed":309438,"internal_node_id":"0.0-116.0","participant_id":"A3EG4C9T4F5DUR"},{"rt":686,"stimulus":"stimuli/5.jpg","button_pressed":"1","name":"emotionType","trial_type":"image-button-response","trial_index":117,"time_elapsed":310127,"internal_node_id":"0.0-117.0","participant_id":"A3EG4C9T4F5DUR"},{"rt":null,"stimulus":"<p style=\"font-size: 48px;\">+</p>","key_press":null,"Name":"fixation","trial_type":"html-keyboard-response","trial_index":118,"time_elapsed":310628,"internal_node_id":"0.0-118.0","participant_id":"A3EG4C9T4F5DUR"},{"rt":null,"stimulus":"stimuli/69.jpg","button_pressed":null,"name":"noRating","trial_type":"image-button-response","trial_index":119,"time_elapsed":315630,"internal_node_id":"0.0-119.0","participant_id":"A3EG4C9T4F5DUR"},{"rt":904,"stimulus":"stimuli/69.jpg","button_pressed":"0","name":"valence","trial_type":"image-button-response","trial_index":120,"time_elapsed":316536,"internal_node_id":"0.0-120.0","participant_id":"A3EG4C9T4F5DUR"},{"rt":1968,"response":"95","name":"rating","trial_type":"image-slider-response","trial_index":121,"time_elapsed":318507,"internal_node_id":"0.0-121.0","participant_id":"A3EG4C9T4F5DUR"},{"rt":716,"stimulus":"stimuli/69.jpg","button_pressed":"1","name":"emotionType","trial_type":"image-button-response","trial_index":122,"time_elapsed":319227,"internal_node_id":"0.0-122.0","participant_id":"A3EG4C9T4F5DUR"},{"rt":null,"stimulus":"<p style=\"font-size: 48px;\">+</p>","key_press":null,"Name":"fixation","trial_type":"html-keyboard-response","trial_index":123,"time_elapsed":319729,"internal_node_id":"0.0-123.0","participant_id":"A3EG4C9T4F5DUR"},{"rt":null,"stimulus":"stimuli/47.jpg","button_pressed":null,"name":"noRating","trial_type":"image-button-response","trial_index":124,"time_elapsed":324730,"internal_node_id":"0.0-124.0","participant_id":"A3EG4C9T4F5DUR"},{"rt":1695,"stimulus":"stimuli/47.jpg","button_pressed":"0","name":"valence","trial_type":"image-button-response","trial_index":125,"time_elapsed":326427,"internal_node_id":"0.0-125.0","participant_id":"A3EG4C9T4F5DUR"},{"rt":1553,"response":"77","name":"rating","trial_type":"image-slider-response","trial_index":126,"time_elapsed":327982,"internal_node_id":"0.0-126.0","participant_id":"A3EG4C9T4F5DUR"},{"rt":1355,"stimulus":"stimuli/47.jpg","button_pressed":"0","name":"emotionType","trial_type":"image-button-response","trial_index":127,"time_elapsed":329342,"internal_node_id":"0.0-127.0","participant_id":"A3EG4C9T4F5DUR"},{"rt":null,"stimulus":"<p style=\"font-size: 48px;\">+</p>","key_press":null,"Name":"fixation","trial_type":"html-keyboard-response","trial_index":128,"time_elapsed":330343,"internal_node_id":"0.0-128.0","participant_id":"A3EG4C9T4F5DUR"},{"rt":null,"stimulus":"stimuli/57.jpg","button_pressed":null,"name":"noRating","trial_type":"image-button-response","trial_index":129,"time_elapsed":335345,"internal_node_id":"0.0-129.0","participant_id":"A3EG4C9T4F5DUR"},{"rt":1007,"stimulus":"stimuli/57.jpg","button_pressed":"0","name":"valence","trial_type":"image-button-response","trial_index":130,"time_elapsed":336354,"internal_node_id":"0.0-130.0","participant_id":"A3EG4C9T4F5DUR"},{"rt":1830,"response":"97","name":"rating","trial_type":"image-slider-response","trial_index":131,"time_elapsed":338186,"internal_node_id":"0.0-131.0","participant_id":"A3EG4C9T4F5DUR"},{"rt":593,"stimulus":"stimuli/57.jpg","button_pressed":"1","name":"emotionType","trial_type":"image-button-response","trial_index":132,"time_elapsed":338781,"internal_node_id":"0.0-132.0","participant_id":"A3EG4C9T4F5DUR"},{"rt":null,"stimulus":"<p style=\"font-size: 48px;\">+</p>","key_press":null,"Name":"fixation","trial_type":"html-keyboard-response","trial_index":133,"time_elapsed":339284,"internal_node_id":"0.0-133.0","participant_id":"A3EG4C9T4F5DUR"},{"rt":null,"stimulus":"stimuli/49.jpg","button_pressed":null,"name":"noRating","trial_type":"image-button-response","trial_index":134,"time_elapsed":344286,"internal_node_id":"0.0-134.0","participant_id":"A3EG4C9T4F5DUR"},{"rt":1550,"stimulus":"stimuli/49.jpg","button_pressed":"0","name":"valence","trial_type":"image-button-response","trial_index":135,"time_elapsed":345839,"internal_node_id":"0.0-135.0","participant_id":"A3EG4C9T4F5DUR"},{"rt":1548,"response":"96","name":"rating","trial_type":"image-slider-response","trial_index":136,"time_elapsed":347389,"internal_node_id":"0.0-136.0","participant_id":"A3EG4C9T4F5DUR"},{"rt":803,"stimulus":"stimuli/49.jpg","button_pressed":"1","name":"emotionType","trial_type":"image-button-response","trial_index":137,"time_elapsed":348195,"internal_node_id":"0.0-137.0","participant_id":"A3EG4C9T4F5DUR"},{"rt":2593,"responses":"{\"Q0\":\"we\"}","trial_type":"survey-text","trial_index":138,"time_elapsed":350791,"internal_node_id":"0.0-138.0-0.0","participant_id":"A3EG4C9T4F5DUR"},{"rt":null,"stimulus":"<p style=\"font-size: 48px;\">+</p>","key_press":null,"Name":"fixation","trial_type":"html-keyboard-response","trial_index":139,"time_elapsed":351793,"internal_node_id":"0.0-139.0","participant_id":"A3EG4C9T4F5DUR"},{"rt":null,"stimulus":"stimuli/56.jpg","button_pressed":null,"name":"noRating","trial_type":"image-button-response","trial_index":140,"time_elapsed":356794,"internal_node_id":"0.0-140.0","participant_id":"A3EG4C9T4F5DUR"},{"rt":1080,"stimulus":"stimuli/56.jpg","button_pressed":"0","name":"valence","trial_type":"image-button-response","trial_index":141,"time_elapsed":357876,"internal_node_id":"0.0-141.0","participant_id":"A3EG4C9T4F5DUR"},{"rt":1716,"response":"100","name":"rating","trial_type":"image-slider-response","trial_index":142,"time_elapsed":359596,"internal_node_id":"0.0-142.0","participant_id":"A3EG4C9T4F5DUR"},{"rt":605,"stimulus":"stimuli/56.jpg","button_pressed":"0","name":"emotionType","trial_type":"image-button-response","trial_index":143,"time_elapsed":360202,"internal_node_id":"0.0-143.0","participant_id":"A3EG4C9T4F5DUR"},{"rt":null,"stimulus":"<p style=\"font-size: 48px;\">+</p>","key_press":null,"Name":"fixation","trial_type":"html-keyboard-response","trial_index":144,"time_elapsed":361205,"internal_node_id":"0.0-144.0","participant_id":"A3EG4C9T4F5DUR"},{"rt":null,"stimulus":"stimuli/64.jpg","button_pressed":null,"name":"noRating","trial_type":"image-button-response","trial_index":145,"time_elapsed":366206,"internal_node_id":"0.0-145.0","participant_id":"A3EG4C9T4F5DUR"},{"rt":825,"stimulus":"stimuli/64.jpg","button_pressed":"0","name":"valence","trial_type":"image-button-response","trial_index":146,"time_elapsed":367032,"internal_node_id":"0.0-146.0","participant_id":"A3EG4C9T4F5DUR"},{"rt":1480,"response":"93","name":"rating","trial_type":"image-slider-response","trial_index":147,"time_elapsed":368518,"internal_node_id":"0.0-147.0","participant_id":"A3EG4C9T4F5DUR"},{"rt":613,"stimulus":"stimuli/64.jpg","button_pressed":"1","name":"emotionType","trial_type":"image-button-response","trial_index":148,"time_elapsed":369135,"internal_node_id":"0.0-148.0","participant_id":"A3EG4C9T4F5DUR"},{"rt":null,"stimulus":"<p style=\"font-size: 48px;\">+</p>","key_press":null,"Name":"fixation","trial_type":"html-keyboard-response","trial_index":149,"time_elapsed":370637,"internal_node_id":"0.0-149.0","participant_id":"A3EG4C9T4F5DUR"},{"rt":null,"stimulus":"stimuli/51.jpg","button_pressed":null,"name":"noRating","trial_type":"image-button-response","trial_index":150,"time_elapsed":375641,"internal_node_id":"0.0-150.0","participant_id":"A3EG4C9T4F5DUR"},{"rt":1030,"stimulus":"stimuli/51.jpg","button_pressed":"0","name":"valence","trial_type":"image-button-response","trial_index":151,"time_elapsed":376674,"internal_node_id":"0.0-151.0","participant_id":"A3EG4C9T4F5DUR"},{"rt":2274,"response":"95","name":"rating","trial_type":"image-slider-response","trial_index":152,"time_elapsed":378950,"internal_node_id":"0.0-152.0","participant_id":"A3EG4C9T4F5DUR"},{"rt":798,"stimulus":"stimuli/51.jpg","button_pressed":"1","name":"emotionType","trial_type":"image-button-response","trial_index":153,"time_elapsed":379751,"internal_node_id":"0.0-153.0","participant_id":"A3EG4C9T4F5DUR"},{"rt":null,"stimulus":"<p style=\"font-size: 48px;\">+</p>","key_press":null,"Name":"fixation","trial_type":"html-keyboard-response","trial_index":154,"time_elapsed":380254,"internal_node_id":"0.0-154.0","participant_id":"A3EG4C9T4F5DUR"},{"rt":null,"stimulus":"stimuli/13.jpg","button_pressed":null,"name":"noRating","trial_type":"image-button-response","trial_index":155,"time_elapsed":385257,"internal_node_id":"0.0-155.0","participant_id":"A3EG4C9T4F5DUR"},{"rt":6419,"stimulus":"stimuli/13.jpg","button_pressed":"0","name":"valence","trial_type":"image-button-response","trial_index":156,"time_elapsed":391679,"internal_node_id":"0.0-156.0","participant_id":"A3EG4C9T4F5DUR"},{"rt":1552,"response":"80","name":"rating","trial_type":"image-slider-response","trial_index":157,"time_elapsed":393234,"internal_node_id":"0.0-157.0","participant_id":"A3EG4C9T4F5DUR"},{"rt":655,"stimulus":"stimuli/13.jpg","button_pressed":"0","name":"emotionType","trial_type":"image-button-response","trial_index":158,"time_elapsed":393891,"internal_node_id":"0.0-158.0","participant_id":"A3EG4C9T4F5DUR"},{"rt":null,"stimulus":"<p style=\"font-size: 48px;\">+</p>","key_press":null,"Name":"fixation","trial_type":"html-keyboard-response","trial_index":159,"time_elapsed":394393,"internal_node_id":"0.0-159.0","participant_id":"A3EG4C9T4F5DUR"},{"rt":null,"stimulus":"stimuli/61.jpg","button_pressed":null,"name":"noRating","trial_type":"image-button-response","trial_index":160,"time_elapsed":399398,"internal_node_id":"0.0-160.0","participant_id":"A3EG4C9T4F5DUR"},{"rt":1211,"stimulus":"stimuli/61.jpg","button_pressed":"0","name":"valence","trial_type":"image-button-response","trial_index":161,"time_elapsed":400611,"internal_node_id":"0.0-161.0","participant_id":"A3EG4C9T4F5DUR"},{"rt":2865,"response":"78","name":"rating","trial_type":"image-slider-response","trial_index":162,"time_elapsed":403478,"internal_node_id":"0.0-162.0","participant_id":"A3EG4C9T4F5DUR"},{"rt":1467,"stimulus":"stimuli/61.jpg","button_pressed":"0","name":"emotionType","trial_type":"image-button-response","trial_index":163,"time_elapsed":404947,"internal_node_id":"0.0-163.0","participant_id":"A3EG4C9T4F5DUR"},{"rt":4585,"stimulus":"stimuli/ins/Slide8.JPG","button_pressed":"0","trial_type":"image-button-response","trial_index":164,"time_elapsed":409535,"internal_node_id":"0.0-164.0","participant_id":"A3EG4C9T4F5DUR"}]