[{"rt":12461,"responses":"{\"Q0\":\"A3EHDY67QENKPT\"}","trial_type":"survey-text","trial_index":0,"time_elapsed":12465,"internal_node_id":"0.0-0.0-0.0","participant_id":"A3EHDY67QENKPT"},{"rt":11827,"stimulus":"stimuli/ins/Slide1.JPG","button_pressed":"0","Name":"instructions","trial_type":"image-button-response","trial_index":1,"time_elapsed":24296,"internal_node_id":"0.0-1.0","participant_id":"A3EHDY67QENKPT"},{"rt":6182,"stimulus":"stimuli/ins/Slide2.JPG","button_pressed":"0","Name":"instructions","trial_type":"image-button-response","trial_index":2,"time_elapsed":30480,"internal_node_id":"0.0-2.0","participant_id":"A3EHDY67QENKPT"},{"rt":7245,"stimulus":"stimuli/ins/Slide3.JPG","button_pressed":"0","Name":"instructions","trial_type":"image-button-response","trial_index":3,"time_elapsed":37727,"internal_node_id":"0.0-3.0","participant_id":"A3EHDY67QENKPT"},{"rt":6927,"stimulus":"stimuli/ins/Slide4.JPG","button_pressed":"0","Name":"instructions","trial_type":"image-button-response","trial_index":4,"time_elapsed":44655,"internal_node_id":"0.0-4.0","participant_id":"A3EHDY67QENKPT"},{"rt":5096,"stimulus":"stimuli/ins/Slide5.JPG","button_pressed":"0","Name":"instructions","trial_type":"image-button-response","trial_index":5,"time_elapsed":49752,"internal_node_id":"0.0-5.0","participant_id":"A3EHDY67QENKPT"},{"rt":3941,"stimulus":"stimuli/ins/Slide6.JPG","button_pressed":"0","Name":"instructions","trial_type":"image-button-response","trial_index":6,"time_elapsed":53695,"internal_node_id":"0.0-6.0","participant_id":"A3EHDY67QENKPT"},{"rt":1742,"stimulus":"stimuli/ins/Slide7.JPG","button_pressed":"0","Name":"instructions","trial_type":"image-button-response","trial_index":7,"time_elapsed":55439,"internal_node_id":"0.0-7.0","participant_id":"A3EHDY67QENKPT"},{"rt":14574,"responses":"{\"Q0\":\"but\"}","trial_type":"survey-text","trial_index":8,"time_elapsed":70015,"internal_node_id":"0.0-8.0-0.0","participant_id":"A3EHDY67QENKPT"},{"rt":null,"stimulus":"<p style=\"font-size: 48px;\">+</p>","key_press":null,"Name":"fixation","trial_type":"html-keyboard-response","trial_index":9,"time_elapsed":71018,"internal_node_id":"0.0-9.0","participant_id":"A3EHDY67QENKPT"},{"rt":null,"stimulus":"stimuli/25.jpg","button_pressed":null,"name":"noRating","trial_type":"image-button-response","trial_index":10,"time_elapsed":76022,"internal_node_id":"0.0-10.0","participant_id":"A3EHDY67QENKPT"},{"rt":1991,"stimulus":"stimuli/25.jpg","button_pressed":"0","name":"valence","trial_type":"image-button-response","trial_index":11,"time_elapsed":78015,"internal_node_id":"0.0-11.0","participant_id":"A3EHDY67QENKPT"},{"rt":7861,"response":"80","name":"rating","trial_type":"image-slider-response","trial_index":12,"time_elapsed":85879,"internal_node_id":"0.0-12.0","participant_id":"A3EHDY67QENKPT"},{"rt":8159,"stimulus":"stimuli/25.jpg","button_pressed":"0","name":"emotionType","trial_type":"image-button-response","trial_index":13,"time_elapsed":94040,"internal_node_id":"0.0-13.0","participant_id":"A3EHDY67QENKPT"},{"rt":null,"stimulus":"<p style=\"font-size: 48px;\">+</p>","key_press":null,"Name":"fixation","trial_type":"html-keyboard-response","trial_index":14,"time_elapsed":95551,"internal_node_id":"0.0-14.0","participant_id":"A3EHDY67QENKPT"},{"rt":null,"stimulus":"stimuli/3.jpg","button_pressed":null,"name":"noRating","trial_type":"image-button-response","trial_index":15,"time_elapsed":100555,"internal_node_id":"0.0-15.0","participant_id":"A3EHDY67QENKPT"},{"rt":10314,"stimulus":"stimuli/3.jpg","button_pressed":"2","name":"valence","trial_type":"image-button-response","trial_index":16,"time_elapsed":110871,"internal_node_id":"0.0-16.0","participant_id":"A3EHDY67QENKPT"},{"rt":6878,"response":"51","name":"rating","trial_type":"image-slider-response","trial_index":17,"time_elapsed":117751,"internal_node_id":"0.0-17.0","participant_id":"A3EHDY67QENKPT"},{"rt":2894,"stimulus":"stimuli/3.jpg","button_pressed":"1","name":"emotionType","trial_type":"image-button-response","trial_index":18,"time_elapsed":120647,"internal_node_id":"0.0-18.0","participant_id":"A3EHDY67QENKPT"},{"rt":null,"stimulus":"<p style=\"font-size: 48px;\">+</p>","key_press":null,"Name":"fixation","trial_type":"html-keyboard-response","trial_index":19,"time_elapsed":121649,"internal_node_id":"0.0-19.0","participant_id":"A3EHDY67QENKPT"},{"rt":null,"stimulus":"stimuli/8.jpg","button_pressed":null,"name":"noRating","trial_type":"image-button-response","trial_index":20,"time_elapsed":126651,"internal_node_id":"0.0-20.0","participant_id":"A3EHDY67QENKPT"},{"rt":1890,"stimulus":"stimuli/8.jpg","button_pressed":"0","name":"valence","trial_type":"image-button-response","trial_index":21,"time_elapsed":128543,"internal_node_id":"0.0-21.0","participant_id":"A3EHDY67QENKPT"},{"rt":4813,"response":"100","name":"rating","trial_type":"image-slider-response","trial_index":22,"time_elapsed":133359,"internal_node_id":"0.0-22.0","participant_id":"A3EHDY67QENKPT"},{"rt":4262,"stimulus":"stimuli/8.jpg","button_pressed":"0","name":"emotionType","trial_type":"image-button-response","trial_index":23,"time_elapsed":137623,"internal_node_id":"0.0-23.0","participant_id":"A3EHDY67QENKPT"},{"rt":null,"stimulus":"<p style=\"font-size: 48px;\">+</p>","key_press":null,"Name":"fixation","trial_type":"html-keyboard-response","trial_index":24,"time_elapsed":139125,"internal_node_id":"0.0-24.0","participant_id":"A3EHDY67QENKPT"},{"rt":null,"stimulus":"stimuli/44.jpg","button_pressed":null,"name":"noRating","trial_type":"image-button-response","trial_index":25,"time_elapsed":144128,"internal_node_id":"0.0-25.0","participant_id":"A3EHDY67QENKPT"},{"rt":8132,"stimulus":"stimuli/44.jpg","button_pressed":"0","name":"valence","trial_type":"image-button-response","trial_index":26,"time_elapsed":152263,"internal_node_id":"0.0-26.0","participant_id":"A3EHDY67QENKPT"},{"rt":5214,"response":"57","name":"rating","trial_type":"image-slider-response","trial_index":27,"time_elapsed":157478,"internal_node_id":"0.0-27.0","participant_id":"A3EHDY67QENKPT"},{"rt":5342,"stimulus":"stimuli/44.jpg","button_pressed":"1","name":"emotionType","trial_type":"image-button-response","trial_index":28,"time_elapsed":162822,"internal_node_id":"0.0-28.0","participant_id":"A3EHDY67QENKPT"},{"rt":null,"stimulus":"<p style=\"font-size: 48px;\">+</p>","key_press":null,"Name":"fixation","trial_type":"html-keyboard-response","trial_index":29,"time_elapsed":164324,"internal_node_id":"0.0-29.0","participant_id":"A3EHDY67QENKPT"},{"rt":null,"stimulus":"stimuli/42.jpg","button_pressed":null,"name":"noRating","trial_type":"image-button-response","trial_index":30,"time_elapsed":169328,"internal_node_id":"0.0-30.0","participant_id":"A3EHDY67QENKPT"},{"rt":1341,"stimulus":"stimuli/42.jpg","button_pressed":"0","name":"valence","trial_type":"image-button-response","trial_index":31,"time_elapsed":170671,"internal_node_id":"0.0-31.0","participant_id":"A3EHDY67QENKPT"},{"rt":1822,"response":"0","name":"rating","trial_type":"image-slider-response","trial_index":32,"time_elapsed":172494,"internal_node_id":"0.0-32.0","participant_id":"A3EHDY67QENKPT"},{"rt":8622,"stimulus":"stimuli/42.jpg","button_pressed":"0","name":"emotionType","trial_type":"image-button-response","trial_index":33,"time_elapsed":191198,"internal_node_id":"0.0-33.0","participant_id":"A3EHDY67QENKPT"},{"rt":9057,"responses":"{\"Q0\":\"rock\"}","trial_type":"survey-text","trial_index":34,"time_elapsed":200256,"internal_node_id":"0.0-34.0-0.0","participant_id":"A3EHDY67QENKPT"},{"rt":null,"stimulus":"<p style=\"font-size: 48px;\">+</p>","key_press":null,"Name":"fixation","trial_type":"html-keyboard-response","trial_index":35,"time_elapsed":200759,"internal_node_id":"0.0-35.0","participant_id":"A3EHDY67QENKPT"},{"rt":null,"stimulus":"stimuli/41.jpg","button_pressed":null,"name":"noRating","trial_type":"image-button-response","trial_index":36,"time_elapsed":205763,"internal_node_id":"0.0-36.0","participant_id":"A3EHDY67QENKPT"},{"rt":1801,"stimulus":"stimuli/41.jpg","button_pressed":"0","name":"valence","trial_type":"image-button-response","trial_index":37,"time_elapsed":207566,"internal_node_id":"0.0-37.0","participant_id":"A3EHDY67QENKPT"},{"rt":4942,"response":"83","name":"rating","trial_type":"image-slider-response","trial_index":38,"time_elapsed":212510,"internal_node_id":"0.0-38.0","participant_id":"A3EHDY67QENKPT"},{"rt":6414,"stimulus":"stimuli/41.jpg","button_pressed":"0","name":"emotionType","trial_type":"image-button-response","trial_index":39,"time_elapsed":218926,"internal_node_id":"0.0-39.0","participant_id":"A3EHDY67QENKPT"},{"rt":null,"stimulus":"<p style=\"font-size: 48px;\">+</p>","key_press":null,"Name":"fixation","trial_type":"html-keyboard-response","trial_index":40,"time_elapsed":220429,"internal_node_id":"0.0-40.0","participant_id":"A3EHDY67QENKPT"},{"rt":null,"stimulus":"stimuli/37.jpg","button_pressed":null,"name":"noRating","trial_type":"image-button-response","trial_index":41,"time_elapsed":225432,"internal_node_id":"0.0-41.0","participant_id":"A3EHDY67QENKPT"},{"rt":6380,"stimulus":"stimuli/37.jpg","button_pressed":"1","name":"valence","trial_type":"image-button-response","trial_index":42,"time_elapsed":231814,"internal_node_id":"0.0-42.0","participant_id":"A3EHDY67QENKPT"},{"rt":3630,"response":"34","name":"rating","trial_type":"image-slider-response","trial_index":43,"time_elapsed":235445,"internal_node_id":"0.0-43.0","participant_id":"A3EHDY67QENKPT"},{"rt":3310,"stimulus":"stimuli/37.jpg","button_pressed":"4","name":"emotionType","trial_type":"image-button-response","trial_index":44,"time_elapsed":238758,"internal_node_id":"0.0-44.0","participant_id":"A3EHDY67QENKPT"},{"rt":null,"stimulus":"<p style=\"font-size: 48px;\">+</p>","key_press":null,"Name":"fixation","trial_type":"html-keyboard-response","trial_index":45,"time_elapsed":239259,"internal_node_id":"0.0-45.0","participant_id":"A3EHDY67QENKPT"},{"rt":null,"stimulus":"stimuli/29.jpg","button_pressed":null,"name":"noRating","trial_type":"image-button-response","trial_index":46,"time_elapsed":244263,"internal_node_id":"0.0-46.0","participant_id":"A3EHDY67QENKPT"},{"rt":1724,"stimulus":"stimuli/29.jpg","button_pressed":"0","name":"valence","trial_type":"image-button-response","trial_index":47,"time_elapsed":245989,"internal_node_id":"0.0-47.0","participant_id":"A3EHDY67QENKPT"},{"rt":3046,"response":"100","name":"rating","trial_type":"image-slider-response","trial_index":48,"time_elapsed":249037,"internal_node_id":"0.0-48.0","participant_id":"A3EHDY67QENKPT"},{"rt":2910,"stimulus":"stimuli/29.jpg","button_pressed":"0","name":"emotionType","trial_type":"image-button-response","trial_index":49,"time_elapsed":251949,"internal_node_id":"0.0-49.0","participant_id":"A3EHDY67QENKPT"},{"rt":null,"stimulus":"<p style=\"font-size: 48px;\">+</p>","key_press":null,"Name":"fixation","trial_type":"html-keyboard-response","trial_index":50,"time_elapsed":252951,"internal_node_id":"0.0-50.0","participant_id":"A3EHDY67QENKPT"},{"rt":null,"stimulus":"stimuli/47.jpg","button_pressed":null,"name":"noRating","trial_type":"image-button-response","trial_index":51,"time_elapsed":257954,"internal_node_id":"0.0-51.0","participant_id":"A3EHDY67QENKPT"},{"rt":1802,"stimulus":"stimuli/47.jpg","button_pressed":"0","name":"valence","trial_type":"image-button-response","trial_index":52,"time_elapsed":259757,"internal_node_id":"0.0-52.0","participant_id":"A3EHDY67QENKPT"},{"rt":3301,"response":"99","name":"rating","trial_type":"image-slider-response","trial_index":53,"time_elapsed":263061,"internal_node_id":"0.0-53.0","participant_id":"A3EHDY67QENKPT"},{"rt":2175,"stimulus":"stimuli/47.jpg","button_pressed":"1","name":"emotionType","trial_type":"image-button-response","trial_index":54,"time_elapsed":265237,"internal_node_id":"0.0-54.0","participant_id":"A3EHDY67QENKPT"},{"rt":null,"stimulus":"<p style=\"font-size: 48px;\">+</p>","key_press":null,"Name":"fixation","trial_type":"html-keyboard-response","trial_index":55,"time_elapsed":266241,"internal_node_id":"0.0-55.0","participant_id":"A3EHDY67QENKPT"},{"rt":null,"stimulus":"stimuli/36.jpg","button_pressed":null,"name":"noRating","trial_type":"image-button-response","trial_index":56,"time_elapsed":271242,"internal_node_id":"0.0-56.0","participant_id":"A3EHDY67QENKPT"},{"rt":1553,"stimulus":"stimuli/36.jpg","button_pressed":"0","name":"valence","trial_type":"image-button-response","trial_index":57,"time_elapsed":272797,"internal_node_id":"0.0-57.0","participant_id":"A3EHDY67QENKPT"},{"rt":4855,"response":"92","name":"rating","trial_type":"image-slider-response","trial_index":58,"time_elapsed":277653,"internal_node_id":"0.0-58.0","participant_id":"A3EHDY67QENKPT"},{"rt":5095,"stimulus":"stimuli/36.jpg","button_pressed":"1","name":"emotionType","trial_type":"image-button-response","trial_index":59,"time_elapsed":282750,"internal_node_id":"0.0-59.0","participant_id":"A3EHDY67QENKPT"},{"rt":10734,"responses":"{\"Q0\":\"sky\"}","trial_type":"survey-text","trial_index":60,"time_elapsed":293486,"internal_node_id":"0.0-60.0-0.0","participant_id":"A3EHDY67QENKPT"},{"rt":null,"stimulus":"<p style=\"font-size: 48px;\">+</p>","key_press":null,"Name":"fixation","trial_type":"html-keyboard-response","trial_index":61,"time_elapsed":294491,"internal_node_id":"0.0-61.0","participant_id":"A3EHDY67QENKPT"},{"rt":null,"stimulus":"stimuli/39.jpg","button_pressed":null,"name":"noRating","trial_type":"image-button-response","trial_index":62,"time_elapsed":299495,"internal_node_id":"0.0-62.0","participant_id":"A3EHDY67QENKPT"},{"rt":1613,"stimulus":"stimuli/39.jpg","button_pressed":"0","name":"valence","trial_type":"image-button-response","trial_index":63,"time_elapsed":301110,"internal_node_id":"0.0-63.0","participant_id":"A3EHDY67QENKPT"},{"rt":1286,"response":"0","name":"rating","trial_type":"image-slider-response","trial_index":64,"time_elapsed":302397,"internal_node_id":"0.0-64.0","participant_id":"A3EHDY67QENKPT"},{"rt":14879,"stimulus":"stimuli/39.jpg","button_pressed":"0","name":"emotionType","trial_type":"image-button-response","trial_index":65,"time_elapsed":318894,"internal_node_id":"0.0-65.0","participant_id":"A3EHDY67QENKPT"},{"rt":null,"stimulus":"<p style=\"font-size: 48px;\">+</p>","key_press":null,"Name":"fixation","trial_type":"html-keyboard-response","trial_index":66,"time_elapsed":319896,"internal_node_id":"0.0-66.0","participant_id":"A3EHDY67QENKPT"},{"rt":null,"stimulus":"stimuli/40.jpg","button_pressed":null,"name":"noRating","trial_type":"image-button-response","trial_index":67,"time_elapsed":324900,"internal_node_id":"0.0-67.0","participant_id":"A3EHDY67QENKPT"},{"rt":1990,"stimulus":"stimuli/40.jpg","button_pressed":"1","name":"valence","trial_type":"image-button-response","trial_index":68,"time_elapsed":326895,"internal_node_id":"0.0-68.0","participant_id":"A3EHDY67QENKPT"},{"rt":4728,"response":"74","name":"rating","trial_type":"image-slider-response","trial_index":69,"time_elapsed":331626,"internal_node_id":"0.0-69.0","participant_id":"A3EHDY67QENKPT"},{"rt":5498,"stimulus":"stimuli/40.jpg","button_pressed":"4","name":"emotionType","trial_type":"image-button-response","trial_index":70,"time_elapsed":337125,"internal_node_id":"0.0-70.0","participant_id":"A3EHDY67QENKPT"},{"rt":null,"stimulus":"<p style=\"font-size: 48px;\">+</p>","key_press":null,"Name":"fixation","trial_type":"html-keyboard-response","trial_index":71,"time_elapsed":338627,"internal_node_id":"0.0-71.0","participant_id":"A3EHDY67QENKPT"},{"rt":null,"stimulus":"stimuli/7.jpg","button_pressed":null,"name":"noRating","trial_type":"image-button-response","trial_index":72,"time_elapsed":343629,"internal_node_id":"0.0-72.0","participant_id":"A3EHDY67QENKPT"},{"rt":2326,"stimulus":"stimuli/7.jpg","button_pressed":"0","name":"valence","trial_type":"image-button-response","trial_index":73,"time_elapsed":345957,"internal_node_id":"0.0-73.0","participant_id":"A3EHDY67QENKPT"},{"rt":8910,"response":"100","name":"rating","trial_type":"image-slider-response","trial_index":74,"time_elapsed":354869,"internal_node_id":"0.0-74.0","participant_id":"A3EHDY67QENKPT"},{"rt":1766,"stimulus":"stimuli/7.jpg","button_pressed":"1","name":"emotionType","trial_type":"image-button-response","trial_index":75,"time_elapsed":356637,"internal_node_id":"0.0-75.0","participant_id":"A3EHDY67QENKPT"},{"rt":null,"stimulus":"<p style=\"font-size: 48px;\">+</p>","key_press":null,"Name":"fixation","trial_type":"html-keyboard-response","trial_index":76,"time_elapsed":358142,"internal_node_id":"0.0-76.0","participant_id":"A3EHDY67QENKPT"},{"rt":null,"stimulus":"stimuli/54.jpg","button_pressed":null,"name":"noRating","trial_type":"image-button-response","trial_index":77,"time_elapsed":363145,"internal_node_id":"0.0-77.0","participant_id":"A3EHDY67QENKPT"},{"rt":1298,"stimulus":"stimuli/54.jpg","button_pressed":"0","name":"valence","trial_type":"image-button-response","trial_index":78,"time_elapsed":364445,"internal_node_id":"0.0-78.0","participant_id":"A3EHDY67QENKPT"},{"rt":4294,"response":"100","name":"rating","trial_type":"image-slider-response","trial_index":79,"time_elapsed":368741,"internal_node_id":"0.0-79.0","participant_id":"A3EHDY67QENKPT"},{"rt":1638,"stimulus":"stimuli/54.jpg","button_pressed":"0","name":"emotionType","trial_type":"image-button-response","trial_index":80,"time_elapsed":370381,"internal_node_id":"0.0-80.0","participant_id":"A3EHDY67QENKPT"},{"rt":null,"stimulus":"<p style=\"font-size: 48px;\">+</p>","key_press":null,"Name":"fixation","trial_type":"html-keyboard-response","trial_index":81,"time_elapsed":371882,"internal_node_id":"0.0-81.0","participant_id":"A3EHDY67QENKPT"},{"rt":null,"stimulus":"stimuli/64.jpg","button_pressed":null,"name":"noRating","trial_type":"image-button-response","trial_index":82,"time_elapsed":376884,"internal_node_id":"0.0-82.0","participant_id":"A3EHDY67QENKPT"},{"rt":3551,"stimulus":"stimuli/64.jpg","button_pressed":"0","name":"valence","trial_type":"image-button-response","trial_index":83,"time_elapsed":380437,"internal_node_id":"0.0-83.0","participant_id":"A3EHDY67QENKPT"},{"rt":5142,"response":"53","name":"rating","trial_type":"image-slider-response","trial_index":84,"time_elapsed":385581,"internal_node_id":"0.0-84.0","participant_id":"A3EHDY67QENKPT"},{"rt":2286,"stimulus":"stimuli/64.jpg","button_pressed":"0","name":"emotionType","trial_type":"image-button-response","trial_index":85,"time_elapsed":387869,"internal_node_id":"0.0-85.0","participant_id":"A3EHDY67QENKPT"},{"rt":8999,"responses":"{\"Q0\":\"our\"}","trial_type":"survey-text","trial_index":86,"time_elapsed":396869,"internal_node_id":"0.0-86.0-0.0","participant_id":"A3EHDY67QENKPT"},{"rt":null,"stimulus":"<p style=\"font-size: 48px;\">+</p>","key_press":null,"Name":"fixation","trial_type":"html-keyboard-response","trial_index":87,"time_elapsed":397871,"internal_node_id":"0.0-87.0","participant_id":"A3EHDY67QENKPT"},{"rt":null,"stimulus":"stimuli/43.jpg","button_pressed":null,"name":"noRating","trial_type":"image-button-response","trial_index":88,"time_elapsed":402873,"internal_node_id":"0.0-88.0","participant_id":"A3EHDY67QENKPT"},{"rt":3986,"stimulus":"stimuli/43.jpg","button_pressed":"2","name":"valence","trial_type":"image-button-response","trial_index":89,"time_elapsed":406861,"internal_node_id":"0.0-89.0","participant_id":"A3EHDY67QENKPT"},{"rt":4062,"response":"67","name":"rating","trial_type":"image-slider-response","trial_index":90,"time_elapsed":410925,"internal_node_id":"0.0-90.0","participant_id":"A3EHDY67QENKPT"},{"rt":5750,"stimulus":"stimuli/43.jpg","button_pressed":"1","name":"emotionType","trial_type":"image-button-response","trial_index":91,"time_elapsed":416677,"internal_node_id":"0.0-91.0","participant_id":"A3EHDY67QENKPT"},{"rt":null,"stimulus":"<p style=\"font-size: 48px;\">+</p>","key_press":null,"Name":"fixation","trial_type":"html-keyboard-response","trial_index":92,"time_elapsed":418178,"internal_node_id":"0.0-92.0","participant_id":"A3EHDY67QENKPT"},{"rt":null,"stimulus":"stimuli/22.jpg","button_pressed":null,"name":"noRating","trial_type":"image-button-response","trial_index":93,"time_elapsed":423182,"internal_node_id":"0.0-93.0","participant_id":"A3EHDY67QENKPT"},{"rt":1373,"stimulus":"stimuli/22.jpg","button_pressed":"0","name":"valence","trial_type":"image-button-response","trial_index":94,"time_elapsed":424557,"internal_node_id":"0.0-94.0","participant_id":"A3EHDY67QENKPT"},{"rt":2982,"response":"100","name":"rating","trial_type":"image-slider-response","trial_index":95,"time_elapsed":427541,"internal_node_id":"0.0-95.0","participant_id":"A3EHDY67QENKPT"},{"rt":1438,"stimulus":"stimuli/22.jpg","button_pressed":"1","name":"emotionType","trial_type":"image-button-response","trial_index":96,"time_elapsed":428981,"internal_node_id":"0.0-96.0","participant_id":"A3EHDY67QENKPT"},{"rt":null,"stimulus":"<p style=\"font-size: 48px;\">+</p>","key_press":null,"Name":"fixation","trial_type":"html-keyboard-response","trial_index":97,"time_elapsed":430484,"internal_node_id":"0.0-97.0","participant_id":"A3EHDY67QENKPT"},{"rt":null,"stimulus":"stimuli/15.jpg","button_pressed":null,"name":"noRating","trial_type":"image-button-response","trial_index":98,"time_elapsed":435486,"internal_node_id":"0.0-98.0","participant_id":"A3EHDY67QENKPT"},{"rt":1484,"stimulus":"stimuli/15.jpg","button_pressed":"0","name":"valence","trial_type":"image-button-response","trial_index":99,"time_elapsed":436973,"internal_node_id":"0.0-99.0","participant_id":"A3EHDY67QENKPT"},{"rt":5190,"response":"100","name":"rating","trial_type":"image-slider-response","trial_index":100,"time_elapsed":442164,"internal_node_id":"0.0-100.0","participant_id":"A3EHDY67QENKPT"},{"rt":1447,"stimulus":"stimuli/15.jpg","button_pressed":"0","name":"emotionType","trial_type":"image-button-response","trial_index":101,"time_elapsed":443613,"internal_node_id":"0.0-101.0","participant_id":"A3EHDY67QENKPT"},{"rt":null,"stimulus":"<p style=\"font-size: 48px;\">+</p>","key_press":null,"Name":"fixation","trial_type":"html-keyboard-response","trial_index":102,"time_elapsed":444615,"internal_node_id":"0.0-102.0","participant_id":"A3EHDY67QENKPT"},{"rt":null,"stimulus":"stimuli/18.jpg","button_pressed":null,"name":"noRating","trial_type":"image-button-response","trial_index":103,"time_elapsed":449618,"internal_node_id":"0.0-103.0","participant_id":"A3EHDY67QENKPT"},{"rt":2393,"stimulus":"stimuli/18.jpg","button_pressed":"0","name":"valence","trial_type":"image-button-response","trial_index":104,"time_elapsed":452013,"internal_node_id":"0.0-104.0","participant_id":"A3EHDY67QENKPT"},{"rt":2430,"response":"55","name":"rating","trial_type":"image-slider-response","trial_index":105,"time_elapsed":454444,"internal_node_id":"0.0-105.0","participant_id":"A3EHDY67QENKPT"},{"rt":6959,"stimulus":"stimuli/18.jpg","button_pressed":"4","name":"emotionType","trial_type":"image-button-response","trial_index":106,"time_elapsed":461405,"internal_node_id":"0.0-106.0","participant_id":"A3EHDY67QENKPT"},{"rt":null,"stimulus":"<p style=\"font-size: 48px;\">+</p>","key_press":null,"Name":"fixation","trial_type":"html-keyboard-response","trial_index":107,"time_elapsed":461906,"internal_node_id":"0.0-107.0","participant_id":"A3EHDY67QENKPT"},{"rt":null,"stimulus":"stimuli/58.jpg","button_pressed":null,"name":"noRating","trial_type":"image-button-response","trial_index":108,"time_elapsed":466908,"internal_node_id":"0.0-108.0","participant_id":"A3EHDY67QENKPT"},{"rt":3991,"stimulus":"stimuli/58.jpg","button_pressed":"1","name":"valence","trial_type":"image-button-response","trial_index":109,"time_elapsed":470901,"internal_node_id":"0.0-109.0","participant_id":"A3EHDY67QENKPT"},{"rt":3212,"response":"31","name":"rating","trial_type":"image-slider-response","trial_index":110,"time_elapsed":474115,"internal_node_id":"0.0-110.0","participant_id":"A3EHDY67QENKPT"},{"rt":9007,"stimulus":"stimuli/58.jpg","button_pressed":"3","name":"emotionType","trial_type":"image-button-response","trial_index":111,"time_elapsed":483124,"internal_node_id":"0.0-111.0","participant_id":"A3EHDY67QENKPT"},{"rt":10207,"responses":"{\"Q0\":\"course\"}","trial_type":"survey-text","trial_index":112,"time_elapsed":493331,"internal_node_id":"0.0-112.0-0.0","participant_id":"A3EHDY67QENKPT"},{"rt":null,"stimulus":"<p style=\"font-size: 48px;\">+</p>","key_press":null,"Name":"fixation","trial_type":"html-keyboard-response","trial_index":113,"time_elapsed":493834,"internal_node_id":"0.0-113.0","participant_id":"A3EHDY67QENKPT"},{"rt":null,"stimulus":"stimuli/56.jpg","button_pressed":null,"name":"noRating","trial_type":"image-button-response","trial_index":114,"time_elapsed":498836,"internal_node_id":"0.0-114.0","participant_id":"A3EHDY67QENKPT"},{"rt":1190,"stimulus":"stimuli/56.jpg","button_pressed":"0","name":"valence","trial_type":"image-button-response","trial_index":115,"time_elapsed":500027,"internal_node_id":"0.0-115.0","participant_id":"A3EHDY67QENKPT"},{"rt":3514,"response":"100","name":"rating","trial_type":"image-slider-response","trial_index":116,"time_elapsed":503542,"internal_node_id":"0.0-116.0","participant_id":"A3EHDY67QENKPT"},{"rt":1834,"stimulus":"stimuli/56.jpg","button_pressed":"0","name":"emotionType","trial_type":"image-button-response","trial_index":117,"time_elapsed":505379,"internal_node_id":"0.0-117.0","participant_id":"A3EHDY67QENKPT"},{"rt":null,"stimulus":"<p style=\"font-size: 48px;\">+</p>","key_press":null,"Name":"fixation","trial_type":"html-keyboard-response","trial_index":118,"time_elapsed":506381,"internal_node_id":"0.0-118.0","participant_id":"A3EHDY67QENKPT"},{"rt":null,"stimulus":"stimuli/31.jpg","button_pressed":null,"name":"noRating","trial_type":"image-button-response","trial_index":119,"time_elapsed":511384,"internal_node_id":"0.0-119.0","participant_id":"A3EHDY67QENKPT"},{"rt":1146,"stimulus":"stimuli/31.jpg","button_pressed":"0","name":"valence","trial_type":"image-button-response","trial_index":120,"time_elapsed":512531,"internal_node_id":"0.0-120.0","participant_id":"A3EHDY67QENKPT"},{"rt":4759,"response":"81","name":"rating","trial_type":"image-slider-response","trial_index":121,"time_elapsed":517291,"internal_node_id":"0.0-121.0","participant_id":"A3EHDY67QENKPT"},{"rt":2199,"stimulus":"stimuli/31.jpg","button_pressed":"1","name":"emotionType","trial_type":"image-button-response","trial_index":122,"time_elapsed":519491,"internal_node_id":"0.0-122.0","participant_id":"A3EHDY67QENKPT"},{"rt":null,"stimulus":"<p style=\"font-size: 48px;\">+</p>","key_press":null,"Name":"fixation","trial_type":"html-keyboard-response","trial_index":123,"time_elapsed":520993,"internal_node_id":"0.0-123.0","participant_id":"A3EHDY67QENKPT"},{"rt":null,"stimulus":"stimuli/26.jpg","button_pressed":null,"name":"noRating","trial_type":"image-button-response","trial_index":124,"time_elapsed":525995,"internal_node_id":"0.0-124.0","participant_id":"A3EHDY67QENKPT"},{"rt":10639,"stimulus":"stimuli/26.jpg","button_pressed":"0","name":"valence","trial_type":"image-button-response","trial_index":125,"time_elapsed":536635,"internal_node_id":"0.0-125.0","participant_id":"A3EHDY67QENKPT"},{"rt":5902,"response":"67","name":"rating","trial_type":"image-slider-response","trial_index":126,"time_elapsed":542539,"internal_node_id":"0.0-126.0","participant_id":"A3EHDY67QENKPT"},{"rt":1758,"stimulus":"stimuli/26.jpg","button_pressed":"1","name":"emotionType","trial_type":"image-button-response","trial_index":127,"time_elapsed":544299,"internal_node_id":"0.0-127.0","participant_id":"A3EHDY67QENKPT"},{"rt":null,"stimulus":"<p style=\"font-size: 48px;\">+</p>","key_press":null,"Name":"fixation","trial_type":"html-keyboard-response","trial_index":128,"time_elapsed":544801,"internal_node_id":"0.0-128.0","participant_id":"A3EHDY67QENKPT"},{"rt":null,"stimulus":"stimuli/6.jpg","button_pressed":null,"name":"noRating","trial_type":"image-button-response","trial_index":129,"time_elapsed":549803,"internal_node_id":"0.0-129.0","participant_id":"A3EHDY67QENKPT"},{"rt":1255,"stimulus":"stimuli/6.jpg","button_pressed":"0","name":"valence","trial_type":"image-button-response","trial_index":130,"time_elapsed":551059,"internal_node_id":"0.0-130.0","participant_id":"A3EHDY67QENKPT"},{"rt":4558,"response":"69","name":"rating","trial_type":"image-slider-response","trial_index":131,"time_elapsed":555619,"internal_node_id":"0.0-131.0","participant_id":"A3EHDY67QENKPT"},{"rt":1854,"stimulus":"stimuli/6.jpg","button_pressed":"0","name":"emotionType","trial_type":"image-button-response","trial_index":132,"time_elapsed":557475,"internal_node_id":"0.0-132.0","participant_id":"A3EHDY67QENKPT"},{"rt":null,"stimulus":"<p style=\"font-size: 48px;\">+</p>","key_press":null,"Name":"fixation","trial_type":"html-keyboard-response","trial_index":133,"time_elapsed":557978,"internal_node_id":"0.0-133.0","participant_id":"A3EHDY67QENKPT"},{"rt":null,"stimulus":"stimuli/20.jpg","button_pressed":null,"name":"noRating","trial_type":"image-button-response","trial_index":134,"time_elapsed":562981,"internal_node_id":"0.0-134.0","participant_id":"A3EHDY67QENKPT"},{"rt":3812,"stimulus":"stimuli/20.jpg","button_pressed":"0","name":"valence","trial_type":"image-button-response","trial_index":135,"time_elapsed":566795,"internal_node_id":"0.0-135.0","participant_id":"A3EHDY67QENKPT"},{"rt":4286,"response":"72","name":"rating","trial_type":"image-slider-response","trial_index":136,"time_elapsed":571083,"internal_node_id":"0.0-136.0","participant_id":"A3EHDY67QENKPT"},{"rt":1590,"stimulus":"stimuli/20.jpg","button_pressed":"1","name":"emotionType","trial_type":"image-button-response","trial_index":137,"time_elapsed":572675,"internal_node_id":"0.0-137.0","participant_id":"A3EHDY67QENKPT"},{"rt":5614,"responses":"{\"Q0\":\"we\"}","trial_type":"survey-text","trial_index":138,"time_elapsed":578291,"internal_node_id":"0.0-138.0-0.0","participant_id":"A3EHDY67QENKPT"},{"rt":null,"stimulus":"<p style=\"font-size: 48px;\">+</p>","key_press":null,"Name":"fixation","trial_type":"html-keyboard-response","trial_index":139,"time_elapsed":578792,"internal_node_id":"0.0-139.0","participant_id":"A3EHDY67QENKPT"},{"rt":null,"stimulus":"stimuli/24.jpg","button_pressed":null,"name":"noRating","trial_type":"image-button-response","trial_index":140,"time_elapsed":583796,"internal_node_id":"0.0-140.0","participant_id":"A3EHDY67QENKPT"},{"rt":5445,"stimulus":"stimuli/24.jpg","button_pressed":"2","name":"valence","trial_type":"image-button-response","trial_index":141,"time_elapsed":589243,"internal_node_id":"0.0-141.0","participant_id":"A3EHDY67QENKPT"},{"rt":3199,"response":"67","name":"rating","trial_type":"image-slider-response","trial_index":142,"time_elapsed":592444,"internal_node_id":"0.0-142.0","participant_id":"A3EHDY67QENKPT"},{"rt":1589,"stimulus":"stimuli/24.jpg","button_pressed":"1","name":"emotionType","trial_type":"image-button-response","trial_index":143,"time_elapsed":594035,"internal_node_id":"0.0-143.0","participant_id":"A3EHDY67QENKPT"},{"rt":null,"stimulus":"<p style=\"font-size: 48px;\">+</p>","key_press":null,"Name":"fixation","trial_type":"html-keyboard-response","trial_index":144,"time_elapsed":595036,"internal_node_id":"0.0-144.0","participant_id":"A3EHDY67QENKPT"},{"rt":null,"stimulus":"stimuli/17.jpg","button_pressed":null,"name":"noRating","trial_type":"image-button-response","trial_index":145,"time_elapsed":600040,"internal_node_id":"0.0-145.0","participant_id":"A3EHDY67QENKPT"},{"rt":4565,"stimulus":"stimuli/17.jpg","button_pressed":"1","name":"valence","trial_type":"image-button-response","trial_index":146,"time_elapsed":604606,"internal_node_id":"0.0-146.0","participant_id":"A3EHDY67QENKPT"},{"rt":4395,"response":"68","name":"rating","trial_type":"image-slider-response","trial_index":147,"time_elapsed":609003,"internal_node_id":"0.0-147.0","participant_id":"A3EHDY67QENKPT"},{"rt":3535,"stimulus":"stimuli/17.jpg","button_pressed":"4","name":"emotionType","trial_type":"image-button-response","trial_index":148,"time_elapsed":612539,"internal_node_id":"0.0-148.0","participant_id":"A3EHDY67QENKPT"},{"rt":null,"stimulus":"<p style=\"font-size: 48px;\">+</p>","key_press":null,"Name":"fixation","trial_type":"html-keyboard-response","trial_index":149,"time_elapsed":613043,"internal_node_id":"0.0-149.0","participant_id":"A3EHDY67QENKPT"},{"rt":null,"stimulus":"stimuli/62.jpg","button_pressed":null,"name":"noRating","trial_type":"image-button-response","trial_index":150,"time_elapsed":618047,"internal_node_id":"0.0-150.0","participant_id":"A3EHDY67QENKPT"},{"rt":1139,"stimulus":"stimuli/62.jpg","button_pressed":"0","name":"valence","trial_type":"image-button-response","trial_index":151,"time_elapsed":619187,"internal_node_id":"0.0-151.0","participant_id":"A3EHDY67QENKPT"},{"rt":3726,"response":"100","name":"rating","trial_type":"image-slider-response","trial_index":152,"time_elapsed":622915,"internal_node_id":"0.0-152.0","participant_id":"A3EHDY67QENKPT"},{"rt":3735,"stimulus":"stimuli/62.jpg","button_pressed":"1","name":"emotionType","trial_type":"image-button-response","trial_index":153,"time_elapsed":626651,"internal_node_id":"0.0-153.0","participant_id":"A3EHDY67QENKPT"},{"rt":null,"stimulus":"<p style=\"font-size: 48px;\">+</p>","key_press":null,"Name":"fixation","trial_type":"html-keyboard-response","trial_index":154,"time_elapsed":627153,"internal_node_id":"0.0-154.0","participant_id":"A3EHDY67QENKPT"},{"rt":null,"stimulus":"stimuli/63.jpg","button_pressed":null,"name":"noRating","trial_type":"image-button-response","trial_index":155,"time_elapsed":632155,"internal_node_id":"0.0-155.0","participant_id":"A3EHDY67QENKPT"},{"rt":1198,"stimulus":"stimuli/63.jpg","button_pressed":"0","name":"valence","trial_type":"image-button-response","trial_index":156,"time_elapsed":633355,"internal_node_id":"0.0-156.0","participant_id":"A3EHDY67QENKPT"},{"rt":5366,"response":"55","name":"rating","trial_type":"image-slider-response","trial_index":157,"time_elapsed":638723,"internal_node_id":"0.0-157.0","participant_id":"A3EHDY67QENKPT"},{"rt":2809,"stimulus":"stimuli/63.jpg","button_pressed":"0","name":"emotionType","trial_type":"image-button-response","trial_index":158,"time_elapsed":641534,"internal_node_id":"0.0-158.0","participant_id":"A3EHDY67QENKPT"},{"rt":null,"stimulus":"<p style=\"font-size: 48px;\">+</p>","key_press":null,"Name":"fixation","trial_type":"html-keyboard-response","trial_index":159,"time_elapsed":642036,"internal_node_id":"0.0-159.0","participant_id":"A3EHDY67QENKPT"},{"rt":null,"stimulus":"stimuli/49.jpg","button_pressed":null,"name":"noRating","trial_type":"image-button-response","trial_index":160,"time_elapsed":647038,"internal_node_id":"0.0-160.0","participant_id":"A3EHDY67QENKPT"},{"rt":1339,"stimulus":"stimuli/49.jpg","button_pressed":"0","name":"valence","trial_type":"image-button-response","trial_index":161,"time_elapsed":648379,"internal_node_id":"0.0-161.0","participant_id":"A3EHDY67QENKPT"},{"rt":4086,"response":"100","name":"rating","trial_type":"image-slider-response","trial_index":162,"time_elapsed":652467,"internal_node_id":"0.0-162.0","participant_id":"A3EHDY67QENKPT"},{"rt":1598,"stimulus":"stimuli/49.jpg","button_pressed":"0","name":"emotionType","trial_type":"image-button-response","trial_index":163,"time_elapsed":654067,"internal_node_id":"0.0-163.0","participant_id":"A3EHDY67QENKPT"},{"rt":7373,"stimulus":"stimuli/ins/Slide8.JPG","button_pressed":"0","trial_type":"image-button-response","trial_index":164,"time_elapsed":661442,"internal_node_id":"0.0-164.0","participant_id":"A3EHDY67QENKPT"}]