[{"rt":5249,"responses":"{\"Q0\":\"A3F7L0TIE1QEWW\"}","trial_type":"survey-text","trial_index":0,"time_elapsed":5254,"internal_node_id":"0.0-0.0-0.0","participant_id":"A3F7L0TIE1QEWW"},{"rt":2261,"stimulus":"stimuli/ins/Slide1.JPG","button_pressed":"0","Name":"instructions","trial_type":"image-button-response","trial_index":1,"time_elapsed":7517,"internal_node_id":"0.0-1.0","participant_id":"A3F7L0TIE1QEWW"},{"rt":1110,"stimulus":"stimuli/ins/Slide2.JPG","button_pressed":"0","Name":"instructions","trial_type":"image-button-response","trial_index":2,"time_elapsed":8629,"internal_node_id":"0.0-2.0","participant_id":"A3F7L0TIE1QEWW"},{"rt":2732,"stimulus":"stimuli/ins/Slide3.JPG","button_pressed":"0","Name":"instructions","trial_type":"image-button-response","trial_index":3,"time_elapsed":11361,"internal_node_id":"0.0-3.0","participant_id":"A3F7L0TIE1QEWW"},{"rt":1626,"stimulus":"stimuli/ins/Slide4.JPG","button_pressed":"0","Name":"instructions","trial_type":"image-button-response","trial_index":4,"time_elapsed":12989,"internal_node_id":"0.0-4.0","participant_id":"A3F7L0TIE1QEWW"},{"rt":948,"stimulus":"stimuli/ins/Slide5.JPG","button_pressed":"0","Name":"instructions","trial_type":"image-button-response","trial_index":5,"time_elapsed":13937,"internal_node_id":"0.0-5.0","participant_id":"A3F7L0TIE1QEWW"},{"rt":806,"stimulus":"stimuli/ins/Slide6.JPG","button_pressed":"0","Name":"instructions","trial_type":"image-button-response","trial_index":6,"time_elapsed":14745,"internal_node_id":"0.0-6.0","participant_id":"A3F7L0TIE1QEWW"},{"rt":768,"stimulus":"stimuli/ins/Slide7.JPG","button_pressed":"0","Name":"instructions","trial_type":"image-button-response","trial_index":7,"time_elapsed":15513,"internal_node_id":"0.0-7.0","participant_id":"A3F7L0TIE1QEWW"},{"rt":3794,"responses":"{\"Q0\":\"but\"}","trial_type":"survey-text","trial_index":8,"time_elapsed":19309,"internal_node_id":"0.0-8.0-0.0","participant_id":"A3F7L0TIE1QEWW"},{"rt":null,"stimulus":"<p style=\"font-size: 48px;\">+</p>","key_press":null,"Name":"fixation","trial_type":"html-keyboard-response","trial_index":9,"time_elapsed":20813,"internal_node_id":"0.0-9.0","participant_id":"A3F7L0TIE1QEWW"},{"rt":null,"stimulus":"stimuli/68.jpg","button_pressed":null,"name":"noRating","trial_type":"image-button-response","trial_index":10,"time_elapsed":25821,"internal_node_id":"0.0-10.0","participant_id":"A3F7L0TIE1QEWW"},{"rt":3294,"stimulus":"stimuli/68.jpg","button_pressed":"0","name":"valence","trial_type":"image-button-response","trial_index":11,"time_elapsed":29117,"internal_node_id":"0.0-11.0","participant_id":"A3F7L0TIE1QEWW"},{"rt":2663,"response":"92","name":"rating","trial_type":"image-slider-response","trial_index":12,"time_elapsed":31781,"internal_node_id":"0.0-12.0","participant_id":"A3F7L0TIE1QEWW"},{"rt":2567,"stimulus":"stimuli/68.jpg","button_pressed":"0","name":"emotionType","trial_type":"image-button-response","trial_index":13,"time_elapsed":34349,"internal_node_id":"0.0-13.0","participant_id":"A3F7L0TIE1QEWW"},{"rt":null,"stimulus":"<p style=\"font-size: 48px;\">+</p>","key_press":null,"Name":"fixation","trial_type":"html-keyboard-response","trial_index":14,"time_elapsed":35357,"internal_node_id":"0.0-14.0","participant_id":"A3F7L0TIE1QEWW"},{"rt":null,"stimulus":"stimuli/3.jpg","button_pressed":null,"name":"noRating","trial_type":"image-button-response","trial_index":15,"time_elapsed":40362,"internal_node_id":"0.0-15.0","participant_id":"A3F7L0TIE1QEWW"},{"rt":1145,"stimulus":"stimuli/3.jpg","button_pressed":"0","name":"valence","trial_type":"image-button-response","trial_index":16,"time_elapsed":41509,"internal_node_id":"0.0-16.0","participant_id":"A3F7L0TIE1QEWW"},{"rt":2347,"response":"76","name":"rating","trial_type":"image-slider-response","trial_index":17,"time_elapsed":43857,"internal_node_id":"0.0-17.0","participant_id":"A3F7L0TIE1QEWW"},{"rt":1447,"stimulus":"stimuli/3.jpg","button_pressed":"0","name":"emotionType","trial_type":"image-button-response","trial_index":18,"time_elapsed":45305,"internal_node_id":"0.0-18.0","participant_id":"A3F7L0TIE1QEWW"},{"rt":null,"stimulus":"<p style=\"font-size: 48px;\">+</p>","key_press":null,"Name":"fixation","trial_type":"html-keyboard-response","trial_index":19,"time_elapsed":45810,"internal_node_id":"0.0-19.0","participant_id":"A3F7L0TIE1QEWW"},{"rt":null,"stimulus":"stimuli/49.jpg","button_pressed":null,"name":"noRating","trial_type":"image-button-response","trial_index":20,"time_elapsed":50813,"internal_node_id":"0.0-20.0","participant_id":"A3F7L0TIE1QEWW"},{"rt":1463,"stimulus":"stimuli/49.jpg","button_pressed":"0","name":"valence","trial_type":"image-button-response","trial_index":21,"time_elapsed":52277,"internal_node_id":"0.0-21.0","participant_id":"A3F7L0TIE1QEWW"},{"rt":1963,"response":"89","name":"rating","trial_type":"image-slider-response","trial_index":22,"time_elapsed":54241,"internal_node_id":"0.0-22.0","participant_id":"A3F7L0TIE1QEWW"},{"rt":1211,"stimulus":"stimuli/49.jpg","button_pressed":"0","name":"emotionType","trial_type":"image-button-response","trial_index":23,"time_elapsed":55454,"internal_node_id":"0.0-23.0","participant_id":"A3F7L0TIE1QEWW"},{"rt":null,"stimulus":"<p style=\"font-size: 48px;\">+</p>","key_press":null,"Name":"fixation","trial_type":"html-keyboard-response","trial_index":24,"time_elapsed":56458,"internal_node_id":"0.0-24.0","participant_id":"A3F7L0TIE1QEWW"},{"rt":null,"stimulus":"stimuli/16.jpg","button_pressed":null,"name":"noRating","trial_type":"image-button-response","trial_index":25,"time_elapsed":61461,"internal_node_id":"0.0-25.0","participant_id":"A3F7L0TIE1QEWW"},{"rt":1195,"stimulus":"stimuli/16.jpg","button_pressed":"0","name":"valence","trial_type":"image-button-response","trial_index":26,"time_elapsed":62658,"internal_node_id":"0.0-26.0","participant_id":"A3F7L0TIE1QEWW"},{"rt":2075,"response":"100","name":"rating","trial_type":"image-slider-response","trial_index":27,"time_elapsed":64733,"internal_node_id":"0.0-27.0","participant_id":"A3F7L0TIE1QEWW"},{"rt":866,"stimulus":"stimuli/16.jpg","button_pressed":"0","name":"emotionType","trial_type":"image-button-response","trial_index":28,"time_elapsed":65601,"internal_node_id":"0.0-28.0","participant_id":"A3F7L0TIE1QEWW"},{"rt":null,"stimulus":"<p style=\"font-size: 48px;\">+</p>","key_press":null,"Name":"fixation","trial_type":"html-keyboard-response","trial_index":29,"time_elapsed":66606,"internal_node_id":"0.0-29.0","participant_id":"A3F7L0TIE1QEWW"},{"rt":null,"stimulus":"stimuli/14.jpg","button_pressed":null,"name":"noRating","trial_type":"image-button-response","trial_index":30,"time_elapsed":71613,"internal_node_id":"0.0-30.0","participant_id":"A3F7L0TIE1QEWW"},{"rt":990,"stimulus":"stimuli/14.jpg","button_pressed":"0","name":"valence","trial_type":"image-button-response","trial_index":31,"time_elapsed":72605,"internal_node_id":"0.0-31.0","participant_id":"A3F7L0TIE1QEWW"},{"rt":2196,"response":"84","name":"rating","trial_type":"image-slider-response","trial_index":32,"time_elapsed":74802,"internal_node_id":"0.0-32.0","participant_id":"A3F7L0TIE1QEWW"},{"rt":794,"stimulus":"stimuli/14.jpg","button_pressed":"0","name":"emotionType","trial_type":"image-button-response","trial_index":33,"time_elapsed":75598,"internal_node_id":"0.0-33.0","participant_id":"A3F7L0TIE1QEWW"},{"rt":3967,"responses":"{\"Q0\":\"rock\"}","trial_type":"survey-text","trial_index":34,"time_elapsed":79566,"internal_node_id":"0.0-34.0-0.0","participant_id":"A3F7L0TIE1QEWW"},{"rt":null,"stimulus":"<p style=\"font-size: 48px;\">+</p>","key_press":null,"Name":"fixation","trial_type":"html-keyboard-response","trial_index":35,"time_elapsed":80072,"internal_node_id":"0.0-35.0","participant_id":"A3F7L0TIE1QEWW"},{"rt":null,"stimulus":"stimuli/47.jpg","button_pressed":null,"name":"noRating","trial_type":"image-button-response","trial_index":36,"time_elapsed":85077,"internal_node_id":"0.0-36.0","participant_id":"A3F7L0TIE1QEWW"},{"rt":827,"stimulus":"stimuli/47.jpg","button_pressed":"0","name":"valence","trial_type":"image-button-response","trial_index":37,"time_elapsed":85905,"internal_node_id":"0.0-37.0","participant_id":"A3F7L0TIE1QEWW"},{"rt":1923,"response":"87","name":"rating","trial_type":"image-slider-response","trial_index":38,"time_elapsed":87830,"internal_node_id":"0.0-38.0","participant_id":"A3F7L0TIE1QEWW"},{"rt":1055,"stimulus":"stimuli/47.jpg","button_pressed":"0","name":"emotionType","trial_type":"image-button-response","trial_index":39,"time_elapsed":88885,"internal_node_id":"0.0-39.0","participant_id":"A3F7L0TIE1QEWW"},{"rt":null,"stimulus":"<p style=\"font-size: 48px;\">+</p>","key_press":null,"Name":"fixation","trial_type":"html-keyboard-response","trial_index":40,"time_elapsed":90387,"internal_node_id":"0.0-40.0","participant_id":"A3F7L0TIE1QEWW"},{"rt":null,"stimulus":"stimuli/32.jpg","button_pressed":null,"name":"noRating","trial_type":"image-button-response","trial_index":41,"time_elapsed":95392,"internal_node_id":"0.0-41.0","participant_id":"A3F7L0TIE1QEWW"},{"rt":1012,"stimulus":"stimuli/32.jpg","button_pressed":"0","name":"valence","trial_type":"image-button-response","trial_index":42,"time_elapsed":96405,"internal_node_id":"0.0-42.0","participant_id":"A3F7L0TIE1QEWW"},{"rt":1674,"response":"90","name":"rating","trial_type":"image-slider-response","trial_index":43,"time_elapsed":98081,"internal_node_id":"0.0-43.0","participant_id":"A3F7L0TIE1QEWW"},{"rt":2123,"stimulus":"stimuli/32.jpg","button_pressed":"0","name":"emotionType","trial_type":"image-button-response","trial_index":44,"time_elapsed":100205,"internal_node_id":"0.0-44.0","participant_id":"A3F7L0TIE1QEWW"},{"rt":null,"stimulus":"<p style=\"font-size: 48px;\">+</p>","key_press":null,"Name":"fixation","trial_type":"html-keyboard-response","trial_index":45,"time_elapsed":101709,"internal_node_id":"0.0-45.0","participant_id":"A3F7L0TIE1QEWW"},{"rt":null,"stimulus":"stimuli/64.jpg","button_pressed":null,"name":"noRating","trial_type":"image-button-response","trial_index":46,"time_elapsed":106713,"internal_node_id":"0.0-46.0","participant_id":"A3F7L0TIE1QEWW"},{"rt":850,"stimulus":"stimuli/64.jpg","button_pressed":"0","name":"valence","trial_type":"image-button-response","trial_index":47,"time_elapsed":107565,"internal_node_id":"0.0-47.0","participant_id":"A3F7L0TIE1QEWW"},{"rt":1909,"response":"88","name":"rating","trial_type":"image-slider-response","trial_index":48,"time_elapsed":109476,"internal_node_id":"0.0-48.0","participant_id":"A3F7L0TIE1QEWW"},{"rt":767,"stimulus":"stimuli/64.jpg","button_pressed":"0","name":"emotionType","trial_type":"image-button-response","trial_index":49,"time_elapsed":110244,"internal_node_id":"0.0-49.0","participant_id":"A3F7L0TIE1QEWW"},{"rt":null,"stimulus":"<p style=\"font-size: 48px;\">+</p>","key_press":null,"Name":"fixation","trial_type":"html-keyboard-response","trial_index":50,"time_elapsed":111248,"internal_node_id":"0.0-50.0","participant_id":"A3F7L0TIE1QEWW"},{"rt":null,"stimulus":"stimuli/11.jpg","button_pressed":null,"name":"noRating","trial_type":"image-button-response","trial_index":51,"time_elapsed":116251,"internal_node_id":"0.0-51.0","participant_id":"A3F7L0TIE1QEWW"},{"rt":1288,"stimulus":"stimuli/11.jpg","button_pressed":"0","name":"valence","trial_type":"image-button-response","trial_index":52,"time_elapsed":117540,"internal_node_id":"0.0-52.0","participant_id":"A3F7L0TIE1QEWW"},{"rt":1839,"response":"87","name":"rating","trial_type":"image-slider-response","trial_index":53,"time_elapsed":119380,"internal_node_id":"0.0-53.0","participant_id":"A3F7L0TIE1QEWW"},{"rt":831,"stimulus":"stimuli/11.jpg","button_pressed":"0","name":"emotionType","trial_type":"image-button-response","trial_index":54,"time_elapsed":120213,"internal_node_id":"0.0-54.0","participant_id":"A3F7L0TIE1QEWW"},{"rt":null,"stimulus":"<p style=\"font-size: 48px;\">+</p>","key_press":null,"Name":"fixation","trial_type":"html-keyboard-response","trial_index":55,"time_elapsed":121714,"internal_node_id":"0.0-55.0","participant_id":"A3F7L0TIE1QEWW"},{"rt":null,"stimulus":"stimuli/57.jpg","button_pressed":null,"name":"noRating","trial_type":"image-button-response","trial_index":56,"time_elapsed":126717,"internal_node_id":"0.0-56.0","participant_id":"A3F7L0TIE1QEWW"},{"rt":1006,"stimulus":"stimuli/57.jpg","button_pressed":"0","name":"valence","trial_type":"image-button-response","trial_index":57,"time_elapsed":127724,"internal_node_id":"0.0-57.0","participant_id":"A3F7L0TIE1QEWW"},{"rt":1603,"response":"93","name":"rating","trial_type":"image-slider-response","trial_index":58,"time_elapsed":129328,"internal_node_id":"0.0-58.0","participant_id":"A3F7L0TIE1QEWW"},{"rt":1063,"stimulus":"stimuli/57.jpg","button_pressed":"1","name":"emotionType","trial_type":"image-button-response","trial_index":59,"time_elapsed":130393,"internal_node_id":"0.0-59.0","participant_id":"A3F7L0TIE1QEWW"},{"rt":3827,"responses":"{\"Q0\":\"sky\"}","trial_type":"survey-text","trial_index":60,"time_elapsed":134220,"internal_node_id":"0.0-60.0-0.0","participant_id":"A3F7L0TIE1QEWW"},{"rt":null,"stimulus":"<p style=\"font-size: 48px;\">+</p>","key_press":null,"Name":"fixation","trial_type":"html-keyboard-response","trial_index":61,"time_elapsed":134723,"internal_node_id":"0.0-61.0","participant_id":"A3F7L0TIE1QEWW"},{"rt":null,"stimulus":"stimuli/39.jpg","button_pressed":null,"name":"noRating","trial_type":"image-button-response","trial_index":62,"time_elapsed":139728,"internal_node_id":"0.0-62.0","participant_id":"A3F7L0TIE1QEWW"},{"rt":1202,"stimulus":"stimuli/39.jpg","button_pressed":"0","name":"valence","trial_type":"image-button-response","trial_index":63,"time_elapsed":140933,"internal_node_id":"0.0-63.0","participant_id":"A3F7L0TIE1QEWW"},{"rt":2171,"response":"90","name":"rating","trial_type":"image-slider-response","trial_index":64,"time_elapsed":143105,"internal_node_id":"0.0-64.0","participant_id":"A3F7L0TIE1QEWW"},{"rt":1743,"stimulus":"stimuli/39.jpg","button_pressed":"0","name":"emotionType","trial_type":"image-button-response","trial_index":65,"time_elapsed":144848,"internal_node_id":"0.0-65.0","participant_id":"A3F7L0TIE1QEWW"},{"rt":null,"stimulus":"<p style=\"font-size: 48px;\">+</p>","key_press":null,"Name":"fixation","trial_type":"html-keyboard-response","trial_index":66,"time_elapsed":146351,"internal_node_id":"0.0-66.0","participant_id":"A3F7L0TIE1QEWW"},{"rt":null,"stimulus":"stimuli/42.jpg","button_pressed":null,"name":"noRating","trial_type":"image-button-response","trial_index":67,"time_elapsed":151356,"internal_node_id":"0.0-67.0","participant_id":"A3F7L0TIE1QEWW"},{"rt":1224,"stimulus":"stimuli/42.jpg","button_pressed":"0","name":"valence","trial_type":"image-button-response","trial_index":68,"time_elapsed":152584,"internal_node_id":"0.0-68.0","participant_id":"A3F7L0TIE1QEWW"},{"rt":2279,"response":"82","name":"rating","trial_type":"image-slider-response","trial_index":69,"time_elapsed":154864,"internal_node_id":"0.0-69.0","participant_id":"A3F7L0TIE1QEWW"},{"rt":1723,"stimulus":"stimuli/42.jpg","button_pressed":"1","name":"emotionType","trial_type":"image-button-response","trial_index":70,"time_elapsed":156588,"internal_node_id":"0.0-70.0","participant_id":"A3F7L0TIE1QEWW"},{"rt":null,"stimulus":"<p style=\"font-size: 48px;\">+</p>","key_press":null,"Name":"fixation","trial_type":"html-keyboard-response","trial_index":71,"time_elapsed":157092,"internal_node_id":"0.0-71.0","participant_id":"A3F7L0TIE1QEWW"},{"rt":null,"stimulus":"stimuli/18.jpg","button_pressed":null,"name":"noRating","trial_type":"image-button-response","trial_index":72,"time_elapsed":162098,"internal_node_id":"0.0-72.0","participant_id":"A3F7L0TIE1QEWW"},{"rt":1612,"stimulus":"stimuli/18.jpg","button_pressed":"0","name":"valence","trial_type":"image-button-response","trial_index":73,"time_elapsed":163712,"internal_node_id":"0.0-73.0","participant_id":"A3F7L0TIE1QEWW"},{"rt":2342,"response":"83","name":"rating","trial_type":"image-slider-response","trial_index":74,"time_elapsed":166056,"internal_node_id":"0.0-74.0","participant_id":"A3F7L0TIE1QEWW"},{"rt":1137,"stimulus":"stimuli/18.jpg","button_pressed":"0","name":"emotionType","trial_type":"image-button-response","trial_index":75,"time_elapsed":167193,"internal_node_id":"0.0-75.0","participant_id":"A3F7L0TIE1QEWW"},{"rt":null,"stimulus":"<p style=\"font-size: 48px;\">+</p>","key_press":null,"Name":"fixation","trial_type":"html-keyboard-response","trial_index":76,"time_elapsed":167696,"internal_node_id":"0.0-76.0","participant_id":"A3F7L0TIE1QEWW"},{"rt":null,"stimulus":"stimuli/36.jpg","button_pressed":null,"name":"noRating","trial_type":"image-button-response","trial_index":77,"time_elapsed":172699,"internal_node_id":"0.0-77.0","participant_id":"A3F7L0TIE1QEWW"},{"rt":2181,"stimulus":"stimuli/36.jpg","button_pressed":"0","name":"valence","trial_type":"image-button-response","trial_index":78,"time_elapsed":174882,"internal_node_id":"0.0-78.0","participant_id":"A3F7L0TIE1QEWW"},{"rt":2467,"response":"84","name":"rating","trial_type":"image-slider-response","trial_index":79,"time_elapsed":177349,"internal_node_id":"0.0-79.0","participant_id":"A3F7L0TIE1QEWW"},{"rt":2251,"stimulus":"stimuli/36.jpg","button_pressed":"1","name":"emotionType","trial_type":"image-button-response","trial_index":80,"time_elapsed":179602,"internal_node_id":"0.0-80.0","participant_id":"A3F7L0TIE1QEWW"},{"rt":null,"stimulus":"<p style=\"font-size: 48px;\">+</p>","key_press":null,"Name":"fixation","trial_type":"html-keyboard-response","trial_index":81,"time_elapsed":180103,"internal_node_id":"0.0-81.0","participant_id":"A3F7L0TIE1QEWW"},{"rt":null,"stimulus":"stimuli/5.jpg","button_pressed":null,"name":"noRating","trial_type":"image-button-response","trial_index":82,"time_elapsed":185108,"internal_node_id":"0.0-82.0","participant_id":"A3F7L0TIE1QEWW"},{"rt":1075,"stimulus":"stimuli/5.jpg","button_pressed":"0","name":"valence","trial_type":"image-button-response","trial_index":83,"time_elapsed":186185,"internal_node_id":"0.0-83.0","participant_id":"A3F7L0TIE1QEWW"},{"rt":2075,"response":"93","name":"rating","trial_type":"image-slider-response","trial_index":84,"time_elapsed":188261,"internal_node_id":"0.0-84.0","participant_id":"A3F7L0TIE1QEWW"},{"rt":903,"stimulus":"stimuli/5.jpg","button_pressed":"0","name":"emotionType","trial_type":"image-button-response","trial_index":85,"time_elapsed":189166,"internal_node_id":"0.0-85.0","participant_id":"A3F7L0TIE1QEWW"},{"rt":3619,"responses":"{\"Q0\":\"our\"}","trial_type":"survey-text","trial_index":86,"time_elapsed":192786,"internal_node_id":"0.0-86.0-0.0","participant_id":"A3F7L0TIE1QEWW"},{"rt":null,"stimulus":"<p style=\"font-size: 48px;\">+</p>","key_press":null,"Name":"fixation","trial_type":"html-keyboard-response","trial_index":87,"time_elapsed":194287,"internal_node_id":"0.0-87.0","participant_id":"A3F7L0TIE1QEWW"},{"rt":null,"stimulus":"stimuli/31.jpg","button_pressed":null,"name":"noRating","trial_type":"image-button-response","trial_index":88,"time_elapsed":199292,"internal_node_id":"0.0-88.0","participant_id":"A3F7L0TIE1QEWW"},{"rt":1775,"stimulus":"stimuli/31.jpg","button_pressed":"0","name":"valence","trial_type":"image-button-response","trial_index":89,"time_elapsed":201069,"internal_node_id":"0.0-89.0","participant_id":"A3F7L0TIE1QEWW"},{"rt":2883,"response":"84","name":"rating","trial_type":"image-slider-response","trial_index":90,"time_elapsed":203953,"internal_node_id":"0.0-90.0","participant_id":"A3F7L0TIE1QEWW"},{"rt":1191,"stimulus":"stimuli/31.jpg","button_pressed":"0","name":"emotionType","trial_type":"image-button-response","trial_index":91,"time_elapsed":205146,"internal_node_id":"0.0-91.0","participant_id":"A3F7L0TIE1QEWW"},{"rt":null,"stimulus":"<p style=\"font-size: 48px;\">+</p>","key_press":null,"Name":"fixation","trial_type":"html-keyboard-response","trial_index":92,"time_elapsed":206150,"internal_node_id":"0.0-92.0","participant_id":"A3F7L0TIE1QEWW"},{"rt":null,"stimulus":"stimuli/17.jpg","button_pressed":null,"name":"noRating","trial_type":"image-button-response","trial_index":93,"time_elapsed":211153,"internal_node_id":"0.0-93.0","participant_id":"A3F7L0TIE1QEWW"},{"rt":939,"stimulus":"stimuli/17.jpg","button_pressed":"0","name":"valence","trial_type":"image-button-response","trial_index":94,"time_elapsed":212094,"internal_node_id":"0.0-94.0","participant_id":"A3F7L0TIE1QEWW"},{"rt":2103,"response":"70","name":"rating","trial_type":"image-slider-response","trial_index":95,"time_elapsed":214197,"internal_node_id":"0.0-95.0","participant_id":"A3F7L0TIE1QEWW"},{"rt":931,"stimulus":"stimuli/17.jpg","button_pressed":"1","name":"emotionType","trial_type":"image-button-response","trial_index":96,"time_elapsed":215129,"internal_node_id":"0.0-96.0","participant_id":"A3F7L0TIE1QEWW"},{"rt":null,"stimulus":"<p style=\"font-size: 48px;\">+</p>","key_press":null,"Name":"fixation","trial_type":"html-keyboard-response","trial_index":97,"time_elapsed":216633,"internal_node_id":"0.0-97.0","participant_id":"A3F7L0TIE1QEWW"},{"rt":null,"stimulus":"stimuli/46.jpg","button_pressed":null,"name":"noRating","trial_type":"image-button-response","trial_index":98,"time_elapsed":221635,"internal_node_id":"0.0-98.0","participant_id":"A3F7L0TIE1QEWW"},{"rt":649,"stimulus":"stimuli/46.jpg","button_pressed":"0","name":"valence","trial_type":"image-button-response","trial_index":99,"time_elapsed":222286,"internal_node_id":"0.0-99.0","participant_id":"A3F7L0TIE1QEWW"},{"rt":2647,"response":"66","name":"rating","trial_type":"image-slider-response","trial_index":100,"time_elapsed":224933,"internal_node_id":"0.0-100.0","participant_id":"A3F7L0TIE1QEWW"},{"rt":1071,"stimulus":"stimuli/46.jpg","button_pressed":"0","name":"emotionType","trial_type":"image-button-response","trial_index":101,"time_elapsed":226006,"internal_node_id":"0.0-101.0","participant_id":"A3F7L0TIE1QEWW"},{"rt":null,"stimulus":"<p style=\"font-size: 48px;\">+</p>","key_press":null,"Name":"fixation","trial_type":"html-keyboard-response","trial_index":102,"time_elapsed":227508,"internal_node_id":"0.0-102.0","participant_id":"A3F7L0TIE1QEWW"},{"rt":null,"stimulus":"stimuli/70.jpg","button_pressed":null,"name":"noRating","trial_type":"image-button-response","trial_index":103,"time_elapsed":232513,"internal_node_id":"0.0-103.0","participant_id":"A3F7L0TIE1QEWW"},{"rt":1166,"stimulus":"stimuli/70.jpg","button_pressed":"0","name":"valence","trial_type":"image-button-response","trial_index":104,"time_elapsed":233681,"internal_node_id":"0.0-104.0","participant_id":"A3F7L0TIE1QEWW"},{"rt":2215,"response":"86","name":"rating","trial_type":"image-slider-response","trial_index":105,"time_elapsed":235898,"internal_node_id":"0.0-105.0","participant_id":"A3F7L0TIE1QEWW"},{"rt":771,"stimulus":"stimuli/70.jpg","button_pressed":"0","name":"emotionType","trial_type":"image-button-response","trial_index":106,"time_elapsed":236669,"internal_node_id":"0.0-106.0","participant_id":"A3F7L0TIE1QEWW"},{"rt":null,"stimulus":"<p style=\"font-size: 48px;\">+</p>","key_press":null,"Name":"fixation","trial_type":"html-keyboard-response","trial_index":107,"time_elapsed":238174,"internal_node_id":"0.0-107.0","participant_id":"A3F7L0TIE1QEWW"},{"rt":null,"stimulus":"stimuli/15.jpg","button_pressed":null,"name":"noRating","trial_type":"image-button-response","trial_index":108,"time_elapsed":243180,"internal_node_id":"0.0-108.0","participant_id":"A3F7L0TIE1QEWW"},{"rt":1020,"stimulus":"stimuli/15.jpg","button_pressed":"0","name":"valence","trial_type":"image-button-response","trial_index":109,"time_elapsed":244201,"internal_node_id":"0.0-109.0","participant_id":"A3F7L0TIE1QEWW"},{"rt":1698,"response":"82","name":"rating","trial_type":"image-slider-response","trial_index":110,"time_elapsed":245901,"internal_node_id":"0.0-110.0","participant_id":"A3F7L0TIE1QEWW"},{"rt":1724,"stimulus":"stimuli/15.jpg","button_pressed":"1","name":"emotionType","trial_type":"image-button-response","trial_index":111,"time_elapsed":247625,"internal_node_id":"0.0-111.0","participant_id":"A3F7L0TIE1QEWW"},{"rt":4091,"responses":"{\"Q0\":\"course\"}","trial_type":"survey-text","trial_index":112,"time_elapsed":251717,"internal_node_id":"0.0-112.0-0.0","participant_id":"A3F7L0TIE1QEWW"},{"rt":null,"stimulus":"<p style=\"font-size: 48px;\">+</p>","key_press":null,"Name":"fixation","trial_type":"html-keyboard-response","trial_index":113,"time_elapsed":252223,"internal_node_id":"0.0-113.0","participant_id":"A3F7L0TIE1QEWW"},{"rt":null,"stimulus":"stimuli/69.jpg","button_pressed":null,"name":"noRating","trial_type":"image-button-response","trial_index":114,"time_elapsed":257225,"internal_node_id":"0.0-114.0","participant_id":"A3F7L0TIE1QEWW"},{"rt":2641,"stimulus":"stimuli/69.jpg","button_pressed":"0","name":"valence","trial_type":"image-button-response","trial_index":115,"time_elapsed":259869,"internal_node_id":"0.0-115.0","participant_id":"A3F7L0TIE1QEWW"},{"rt":2283,"response":"87","name":"rating","trial_type":"image-slider-response","trial_index":116,"time_elapsed":262153,"internal_node_id":"0.0-116.0","participant_id":"A3F7L0TIE1QEWW"},{"rt":1383,"stimulus":"stimuli/69.jpg","button_pressed":"0","name":"emotionType","trial_type":"image-button-response","trial_index":117,"time_elapsed":263537,"internal_node_id":"0.0-117.0","participant_id":"A3F7L0TIE1QEWW"},{"rt":null,"stimulus":"<p style=\"font-size: 48px;\">+</p>","key_press":null,"Name":"fixation","trial_type":"html-keyboard-response","trial_index":118,"time_elapsed":264041,"internal_node_id":"0.0-118.0","participant_id":"A3F7L0TIE1QEWW"},{"rt":null,"stimulus":"stimuli/25.jpg","button_pressed":null,"name":"noRating","trial_type":"image-button-response","trial_index":119,"time_elapsed":269046,"internal_node_id":"0.0-119.0","participant_id":"A3F7L0TIE1QEWW"},{"rt":3310,"stimulus":"stimuli/25.jpg","button_pressed":"0","name":"valence","trial_type":"image-button-response","trial_index":120,"time_elapsed":272358,"internal_node_id":"0.0-120.0","participant_id":"A3F7L0TIE1QEWW"},{"rt":1510,"response":"80","name":"rating","trial_type":"image-slider-response","trial_index":121,"time_elapsed":273869,"internal_node_id":"0.0-121.0","participant_id":"A3F7L0TIE1QEWW"},{"rt":1227,"stimulus":"stimuli/25.jpg","button_pressed":"0","name":"emotionType","trial_type":"image-button-response","trial_index":122,"time_elapsed":275097,"internal_node_id":"0.0-122.0","participant_id":"A3F7L0TIE1QEWW"},{"rt":null,"stimulus":"<p style=\"font-size: 48px;\">+</p>","key_press":null,"Name":"fixation","trial_type":"html-keyboard-response","trial_index":123,"time_elapsed":276102,"internal_node_id":"0.0-123.0","participant_id":"A3F7L0TIE1QEWW"},{"rt":null,"stimulus":"stimuli/1.jpg","button_pressed":null,"name":"noRating","trial_type":"image-button-response","trial_index":124,"time_elapsed":281109,"internal_node_id":"0.0-124.0","participant_id":"A3F7L0TIE1QEWW"},{"rt":1235,"stimulus":"stimuli/1.jpg","button_pressed":"0","name":"valence","trial_type":"image-button-response","trial_index":125,"time_elapsed":282346,"internal_node_id":"0.0-125.0","participant_id":"A3F7L0TIE1QEWW"},{"rt":1831,"response":"64","name":"rating","trial_type":"image-slider-response","trial_index":126,"time_elapsed":284177,"internal_node_id":"0.0-126.0","participant_id":"A3F7L0TIE1QEWW"},{"rt":1519,"stimulus":"stimuli/1.jpg","button_pressed":"1","name":"emotionType","trial_type":"image-button-response","trial_index":127,"time_elapsed":285697,"internal_node_id":"0.0-127.0","participant_id":"A3F7L0TIE1QEWW"},{"rt":null,"stimulus":"<p style=\"font-size: 48px;\">+</p>","key_press":null,"Name":"fixation","trial_type":"html-keyboard-response","trial_index":128,"time_elapsed":286203,"internal_node_id":"0.0-128.0","participant_id":"A3F7L0TIE1QEWW"},{"rt":null,"stimulus":"stimuli/60.jpg","button_pressed":null,"name":"noRating","trial_type":"image-button-response","trial_index":129,"time_elapsed":291210,"internal_node_id":"0.0-129.0","participant_id":"A3F7L0TIE1QEWW"},{"rt":1225,"stimulus":"stimuli/60.jpg","button_pressed":"0","name":"valence","trial_type":"image-button-response","trial_index":130,"time_elapsed":292437,"internal_node_id":"0.0-130.0","participant_id":"A3F7L0TIE1QEWW"},{"rt":2131,"response":"79","name":"rating","trial_type":"image-slider-response","trial_index":131,"time_elapsed":294569,"internal_node_id":"0.0-131.0","participant_id":"A3F7L0TIE1QEWW"},{"rt":999,"stimulus":"stimuli/60.jpg","button_pressed":"0","name":"emotionType","trial_type":"image-button-response","trial_index":132,"time_elapsed":295569,"internal_node_id":"0.0-132.0","participant_id":"A3F7L0TIE1QEWW"},{"rt":null,"stimulus":"<p style=\"font-size: 48px;\">+</p>","key_press":null,"Name":"fixation","trial_type":"html-keyboard-response","trial_index":133,"time_elapsed":296073,"internal_node_id":"0.0-133.0","participant_id":"A3F7L0TIE1QEWW"},{"rt":null,"stimulus":"stimuli/51.jpg","button_pressed":null,"name":"noRating","trial_type":"image-button-response","trial_index":134,"time_elapsed":301076,"internal_node_id":"0.0-134.0","participant_id":"A3F7L0TIE1QEWW"},{"rt":3776,"stimulus":"stimuli/51.jpg","button_pressed":"0","name":"valence","trial_type":"image-button-response","trial_index":135,"time_elapsed":304853,"internal_node_id":"0.0-135.0","participant_id":"A3F7L0TIE1QEWW"},{"rt":2215,"response":"91","name":"rating","trial_type":"image-slider-response","trial_index":136,"time_elapsed":307069,"internal_node_id":"0.0-136.0","participant_id":"A3F7L0TIE1QEWW"},{"rt":934,"stimulus":"stimuli/51.jpg","button_pressed":"1","name":"emotionType","trial_type":"image-button-response","trial_index":137,"time_elapsed":308005,"internal_node_id":"0.0-137.0","participant_id":"A3F7L0TIE1QEWW"},{"rt":3600,"responses":"{\"Q0\":\"we\"}","trial_type":"survey-text","trial_index":138,"time_elapsed":311605,"internal_node_id":"0.0-138.0-0.0","participant_id":"A3F7L0TIE1QEWW"},{"rt":null,"stimulus":"<p style=\"font-size: 48px;\">+</p>","key_press":null,"Name":"fixation","trial_type":"html-keyboard-response","trial_index":139,"time_elapsed":313107,"internal_node_id":"0.0-139.0","participant_id":"A3F7L0TIE1QEWW"},{"rt":null,"stimulus":"stimuli/9.jpg","button_pressed":null,"name":"noRating","trial_type":"image-button-response","trial_index":140,"time_elapsed":318112,"internal_node_id":"0.0-140.0","participant_id":"A3F7L0TIE1QEWW"},{"rt":1084,"stimulus":"stimuli/9.jpg","button_pressed":"0","name":"valence","trial_type":"image-button-response","trial_index":141,"time_elapsed":319197,"internal_node_id":"0.0-141.0","participant_id":"A3F7L0TIE1QEWW"},{"rt":1875,"response":"86","name":"rating","trial_type":"image-slider-response","trial_index":142,"time_elapsed":321073,"internal_node_id":"0.0-142.0","participant_id":"A3F7L0TIE1QEWW"},{"rt":1415,"stimulus":"stimuli/9.jpg","button_pressed":"0","name":"emotionType","trial_type":"image-button-response","trial_index":143,"time_elapsed":322489,"internal_node_id":"0.0-143.0","participant_id":"A3F7L0TIE1QEWW"},{"rt":null,"stimulus":"<p style=\"font-size: 48px;\">+</p>","key_press":null,"Name":"fixation","trial_type":"html-keyboard-response","trial_index":144,"time_elapsed":323990,"internal_node_id":"0.0-144.0","participant_id":"A3F7L0TIE1QEWW"},{"rt":null,"stimulus":"stimuli/7.jpg","button_pressed":null,"name":"noRating","trial_type":"image-button-response","trial_index":145,"time_elapsed":328994,"internal_node_id":"0.0-145.0","participant_id":"A3F7L0TIE1QEWW"},{"rt":1562,"stimulus":"stimuli/7.jpg","button_pressed":"0","name":"valence","trial_type":"image-button-response","trial_index":146,"time_elapsed":330557,"internal_node_id":"0.0-146.0","participant_id":"A3F7L0TIE1QEWW"},{"rt":2043,"response":"78","name":"rating","trial_type":"image-slider-response","trial_index":147,"time_elapsed":332601,"internal_node_id":"0.0-147.0","participant_id":"A3F7L0TIE1QEWW"},{"rt":891,"stimulus":"stimuli/7.jpg","button_pressed":"1","name":"emotionType","trial_type":"image-button-response","trial_index":148,"time_elapsed":333493,"internal_node_id":"0.0-148.0","participant_id":"A3F7L0TIE1QEWW"},{"rt":null,"stimulus":"<p style=\"font-size: 48px;\">+</p>","key_press":null,"Name":"fixation","trial_type":"html-keyboard-response","trial_index":149,"time_elapsed":334998,"internal_node_id":"0.0-149.0","participant_id":"A3F7L0TIE1QEWW"},{"rt":null,"stimulus":"stimuli/34.jpg","button_pressed":null,"name":"noRating","trial_type":"image-button-response","trial_index":150,"time_elapsed":340001,"internal_node_id":"0.0-150.0","participant_id":"A3F7L0TIE1QEWW"},{"rt":1042,"stimulus":"stimuli/34.jpg","button_pressed":"0","name":"valence","trial_type":"image-button-response","trial_index":151,"time_elapsed":341045,"internal_node_id":"0.0-151.0","participant_id":"A3F7L0TIE1QEWW"},{"rt":1974,"response":"60","name":"rating","trial_type":"image-slider-response","trial_index":152,"time_elapsed":343021,"internal_node_id":"0.0-152.0","participant_id":"A3F7L0TIE1QEWW"},{"rt":868,"stimulus":"stimuli/34.jpg","button_pressed":"2","name":"emotionType","trial_type":"image-button-response","trial_index":153,"time_elapsed":343889,"internal_node_id":"0.0-153.0","participant_id":"A3F7L0TIE1QEWW"},{"rt":null,"stimulus":"<p style=\"font-size: 48px;\">+</p>","key_press":null,"Name":"fixation","trial_type":"html-keyboard-response","trial_index":154,"time_elapsed":345391,"internal_node_id":"0.0-154.0","participant_id":"A3F7L0TIE1QEWW"},{"rt":null,"stimulus":"stimuli/48.jpg","button_pressed":null,"name":"noRating","trial_type":"image-button-response","trial_index":155,"time_elapsed":350400,"internal_node_id":"0.0-155.0","participant_id":"A3F7L0TIE1QEWW"},{"rt":4559,"stimulus":"stimuli/48.jpg","button_pressed":"0","name":"valence","trial_type":"image-button-response","trial_index":156,"time_elapsed":354961,"internal_node_id":"0.0-156.0","participant_id":"A3F7L0TIE1QEWW"},{"rt":2579,"response":"64","name":"rating","trial_type":"image-slider-response","trial_index":157,"time_elapsed":357541,"internal_node_id":"0.0-157.0","participant_id":"A3F7L0TIE1QEWW"},{"rt":2327,"stimulus":"stimuli/48.jpg","button_pressed":"0","name":"emotionType","trial_type":"image-button-response","trial_index":158,"time_elapsed":359869,"internal_node_id":"0.0-158.0","participant_id":"A3F7L0TIE1QEWW"},{"rt":null,"stimulus":"<p style=\"font-size: 48px;\">+</p>","key_press":null,"Name":"fixation","trial_type":"html-keyboard-response","trial_index":159,"time_elapsed":361371,"internal_node_id":"0.0-159.0","participant_id":"A3F7L0TIE1QEWW"},{"rt":null,"stimulus":"stimuli/24.jpg","button_pressed":null,"name":"noRating","trial_type":"image-button-response","trial_index":160,"time_elapsed":366374,"internal_node_id":"0.0-160.0","participant_id":"A3F7L0TIE1QEWW"},{"rt":822,"stimulus":"stimuli/24.jpg","button_pressed":"0","name":"valence","trial_type":"image-button-response","trial_index":161,"time_elapsed":367197,"internal_node_id":"0.0-161.0","participant_id":"A3F7L0TIE1QEWW"},{"rt":2239,"response":"95","name":"rating","trial_type":"image-slider-response","trial_index":162,"time_elapsed":369438,"internal_node_id":"0.0-162.0","participant_id":"A3F7L0TIE1QEWW"},{"rt":1199,"stimulus":"stimuli/24.jpg","button_pressed":"0","name":"emotionType","trial_type":"image-button-response","trial_index":163,"time_elapsed":370637,"internal_node_id":"0.0-163.0","participant_id":"A3F7L0TIE1QEWW"},{"rt":2511,"stimulus":"stimuli/ins/Slide8.JPG","button_pressed":"0","trial_type":"image-button-response","trial_index":164,"time_elapsed":373150,"internal_node_id":"0.0-164.0","participant_id":"A3F7L0TIE1QEWW"}]