[{"rt":4095,"responses":"{\"Q0\":\"A3L2UB07EZJAMD\"}","trial_type":"survey-text","trial_index":0,"time_elapsed":4101,"internal_node_id":"0.0-0.0-0.0","participant_id":"A3L2UB07EZJAMD"},{"rt":8001,"stimulus":"stimuli/ins/Slide1.JPG","button_pressed":"0","Name":"instructions","trial_type":"image-button-response","trial_index":1,"time_elapsed":12106,"internal_node_id":"0.0-1.0","participant_id":"A3L2UB07EZJAMD"},{"rt":4774,"stimulus":"stimuli/ins/Slide2.JPG","button_pressed":"0","Name":"instructions","trial_type":"image-button-response","trial_index":2,"time_elapsed":16883,"internal_node_id":"0.0-2.0","participant_id":"A3L2UB07EZJAMD"},{"rt":6820,"stimulus":"stimuli/ins/Slide3.JPG","button_pressed":"0","Name":"instructions","trial_type":"image-button-response","trial_index":3,"time_elapsed":23704,"internal_node_id":"0.0-3.0","participant_id":"A3L2UB07EZJAMD"},{"rt":3911,"stimulus":"stimuli/ins/Slide4.JPG","button_pressed":"0","Name":"instructions","trial_type":"image-button-response","trial_index":4,"time_elapsed":27617,"internal_node_id":"0.0-4.0","participant_id":"A3L2UB07EZJAMD"},{"rt":2842,"stimulus":"stimuli/ins/Slide5.JPG","button_pressed":"0","Name":"instructions","trial_type":"image-button-response","trial_index":5,"time_elapsed":30460,"internal_node_id":"0.0-5.0","participant_id":"A3L2UB07EZJAMD"},{"rt":6997,"stimulus":"stimuli/ins/Slide6.JPG","button_pressed":"0","Name":"instructions","trial_type":"image-button-response","trial_index":6,"time_elapsed":37460,"internal_node_id":"0.0-6.0","participant_id":"A3L2UB07EZJAMD"},{"rt":1787,"stimulus":"stimuli/ins/Slide7.JPG","button_pressed":"0","Name":"instructions","trial_type":"image-button-response","trial_index":7,"time_elapsed":39249,"internal_node_id":"0.0-7.0","participant_id":"A3L2UB07EZJAMD"},{"rt":7963,"responses":"{\"Q0\":\"but\"}","trial_type":"survey-text","trial_index":8,"time_elapsed":47215,"internal_node_id":"0.0-8.0-0.0","participant_id":"A3L2UB07EZJAMD"},{"rt":null,"stimulus":"<p style=\"font-size: 48px;\">+</p>","key_press":null,"Name":"fixation","trial_type":"html-keyboard-response","trial_index":9,"time_elapsed":48719,"internal_node_id":"0.0-9.0","participant_id":"A3L2UB07EZJAMD"},{"rt":null,"stimulus":"stimuli/50.jpg","button_pressed":null,"name":"noRating","trial_type":"image-button-response","trial_index":10,"time_elapsed":53723,"internal_node_id":"0.0-10.0","participant_id":"A3L2UB07EZJAMD"},{"rt":2977,"stimulus":"stimuli/50.jpg","button_pressed":"0","name":"valence","trial_type":"image-button-response","trial_index":11,"time_elapsed":56702,"internal_node_id":"0.0-11.0","participant_id":"A3L2UB07EZJAMD"},{"rt":7614,"response":"51","name":"rating","trial_type":"image-slider-response","trial_index":12,"time_elapsed":64321,"internal_node_id":"0.0-12.0","participant_id":"A3L2UB07EZJAMD"},{"rt":3846,"stimulus":"stimuli/50.jpg","button_pressed":"1","name":"emotionType","trial_type":"image-button-response","trial_index":13,"time_elapsed":68170,"internal_node_id":"0.0-13.0","participant_id":"A3L2UB07EZJAMD"},{"rt":null,"stimulus":"<p style=\"font-size: 48px;\">+</p>","key_press":null,"Name":"fixation","trial_type":"html-keyboard-response","trial_index":14,"time_elapsed":68673,"internal_node_id":"0.0-14.0","participant_id":"A3L2UB07EZJAMD"},{"rt":null,"stimulus":"stimuli/62.jpg","button_pressed":null,"name":"noRating","trial_type":"image-button-response","trial_index":15,"time_elapsed":73676,"internal_node_id":"0.0-15.0","participant_id":"A3L2UB07EZJAMD"},{"rt":1713,"stimulus":"stimuli/62.jpg","button_pressed":"0","name":"valence","trial_type":"image-button-response","trial_index":16,"time_elapsed":75395,"internal_node_id":"0.0-16.0","participant_id":"A3L2UB07EZJAMD"},{"rt":4598,"response":"22","name":"rating","trial_type":"image-slider-response","trial_index":17,"time_elapsed":79995,"internal_node_id":"0.0-17.0","participant_id":"A3L2UB07EZJAMD"},{"rt":2844,"stimulus":"stimuli/62.jpg","button_pressed":"1","name":"emotionType","trial_type":"image-button-response","trial_index":18,"time_elapsed":82843,"internal_node_id":"0.0-18.0","participant_id":"A3L2UB07EZJAMD"},{"rt":null,"stimulus":"<p style=\"font-size: 48px;\">+</p>","key_press":null,"Name":"fixation","trial_type":"html-keyboard-response","trial_index":19,"time_elapsed":83846,"internal_node_id":"0.0-19.0","participant_id":"A3L2UB07EZJAMD"},{"rt":null,"stimulus":"stimuli/25.jpg","button_pressed":null,"name":"noRating","trial_type":"image-button-response","trial_index":20,"time_elapsed":88849,"internal_node_id":"0.0-20.0","participant_id":"A3L2UB07EZJAMD"},{"rt":2210,"stimulus":"stimuli/25.jpg","button_pressed":"2","name":"valence","trial_type":"image-button-response","trial_index":21,"time_elapsed":91060,"internal_node_id":"0.0-21.0","participant_id":"A3L2UB07EZJAMD"},{"rt":3629,"response":"0","name":"rating","trial_type":"image-slider-response","trial_index":22,"time_elapsed":94692,"internal_node_id":"0.0-22.0","participant_id":"A3L2UB07EZJAMD"},{"rt":6712,"stimulus":"stimuli/25.jpg","button_pressed":"2","name":"emotionType","trial_type":"image-button-response","trial_index":23,"time_elapsed":105787,"internal_node_id":"0.0-23.0","participant_id":"A3L2UB07EZJAMD"},{"rt":null,"stimulus":"<p style=\"font-size: 48px;\">+</p>","key_press":null,"Name":"fixation","trial_type":"html-keyboard-response","trial_index":24,"time_elapsed":106289,"internal_node_id":"0.0-24.0","participant_id":"A3L2UB07EZJAMD"},{"rt":null,"stimulus":"stimuli/33.jpg","button_pressed":null,"name":"noRating","trial_type":"image-button-response","trial_index":25,"time_elapsed":111291,"internal_node_id":"0.0-25.0","participant_id":"A3L2UB07EZJAMD"},{"rt":3809,"stimulus":"stimuli/33.jpg","button_pressed":"2","name":"valence","trial_type":"image-button-response","trial_index":26,"time_elapsed":115101,"internal_node_id":"0.0-26.0","participant_id":"A3L2UB07EZJAMD"},{"rt":6997,"response":"5","name":"rating","trial_type":"image-slider-response","trial_index":27,"time_elapsed":122099,"internal_node_id":"0.0-27.0","participant_id":"A3L2UB07EZJAMD"},{"rt":4854,"stimulus":"stimuli/33.jpg","button_pressed":"2","name":"emotionType","trial_type":"image-button-response","trial_index":28,"time_elapsed":126955,"internal_node_id":"0.0-28.0","participant_id":"A3L2UB07EZJAMD"},{"rt":null,"stimulus":"<p style=\"font-size: 48px;\">+</p>","key_press":null,"Name":"fixation","trial_type":"html-keyboard-response","trial_index":29,"time_elapsed":127457,"internal_node_id":"0.0-29.0","participant_id":"A3L2UB07EZJAMD"},{"rt":null,"stimulus":"stimuli/1.jpg","button_pressed":null,"name":"noRating","trial_type":"image-button-response","trial_index":30,"time_elapsed":132467,"internal_node_id":"0.0-30.0","participant_id":"A3L2UB07EZJAMD"},{"rt":1582,"stimulus":"stimuli/1.jpg","button_pressed":"0","name":"valence","trial_type":"image-button-response","trial_index":31,"time_elapsed":134051,"internal_node_id":"0.0-31.0","participant_id":"A3L2UB07EZJAMD"},{"rt":3974,"response":"23","name":"rating","trial_type":"image-slider-response","trial_index":32,"time_elapsed":138027,"internal_node_id":"0.0-32.0","participant_id":"A3L2UB07EZJAMD"},{"rt":2768,"stimulus":"stimuli/1.jpg","button_pressed":"0","name":"emotionType","trial_type":"image-button-response","trial_index":33,"time_elapsed":140798,"internal_node_id":"0.0-33.0","participant_id":"A3L2UB07EZJAMD"},{"rt":6797,"responses":"{\"Q0\":\"rock\"}","trial_type":"survey-text","trial_index":34,"time_elapsed":147597,"internal_node_id":"0.0-34.0-0.0","participant_id":"A3L2UB07EZJAMD"},{"rt":null,"stimulus":"<p style=\"font-size: 48px;\">+</p>","key_press":null,"Name":"fixation","trial_type":"html-keyboard-response","trial_index":35,"time_elapsed":148100,"internal_node_id":"0.0-35.0","participant_id":"A3L2UB07EZJAMD"},{"rt":null,"stimulus":"stimuli/65.jpg","button_pressed":null,"name":"noRating","trial_type":"image-button-response","trial_index":36,"time_elapsed":153102,"internal_node_id":"0.0-36.0","participant_id":"A3L2UB07EZJAMD"},{"rt":9672,"stimulus":"stimuli/65.jpg","button_pressed":"0","name":"valence","trial_type":"image-button-response","trial_index":37,"time_elapsed":162776,"internal_node_id":"0.0-37.0","participant_id":"A3L2UB07EZJAMD"},{"rt":3716,"response":"4","name":"rating","trial_type":"image-slider-response","trial_index":38,"time_elapsed":166494,"internal_node_id":"0.0-38.0","participant_id":"A3L2UB07EZJAMD"},{"rt":4730,"stimulus":"stimuli/65.jpg","button_pressed":"1","name":"emotionType","trial_type":"image-button-response","trial_index":39,"time_elapsed":171227,"internal_node_id":"0.0-39.0","participant_id":"A3L2UB07EZJAMD"},{"rt":null,"stimulus":"<p style=\"font-size: 48px;\">+</p>","key_press":null,"Name":"fixation","trial_type":"html-keyboard-response","trial_index":40,"time_elapsed":171729,"internal_node_id":"0.0-40.0","participant_id":"A3L2UB07EZJAMD"},{"rt":null,"stimulus":"stimuli/61.jpg","button_pressed":null,"name":"noRating","trial_type":"image-button-response","trial_index":41,"time_elapsed":176749,"internal_node_id":"0.0-41.0","participant_id":"A3L2UB07EZJAMD"},{"rt":1439,"stimulus":"stimuli/61.jpg","button_pressed":"0","name":"valence","trial_type":"image-button-response","trial_index":42,"time_elapsed":178190,"internal_node_id":"0.0-42.0","participant_id":"A3L2UB07EZJAMD"},{"rt":6190,"response":"5","name":"rating","trial_type":"image-slider-response","trial_index":43,"time_elapsed":184381,"internal_node_id":"0.0-43.0","participant_id":"A3L2UB07EZJAMD"},{"rt":1143,"stimulus":"stimuli/61.jpg","button_pressed":"0","name":"emotionType","trial_type":"image-button-response","trial_index":44,"time_elapsed":185526,"internal_node_id":"0.0-44.0","participant_id":"A3L2UB07EZJAMD"},{"rt":null,"stimulus":"<p style=\"font-size: 48px;\">+</p>","key_press":null,"Name":"fixation","trial_type":"html-keyboard-response","trial_index":45,"time_elapsed":186529,"internal_node_id":"0.0-45.0","participant_id":"A3L2UB07EZJAMD"},{"rt":null,"stimulus":"stimuli/58.jpg","button_pressed":null,"name":"noRating","trial_type":"image-button-response","trial_index":46,"time_elapsed":191537,"internal_node_id":"0.0-46.0","participant_id":"A3L2UB07EZJAMD"},{"rt":1476,"stimulus":"stimuli/58.jpg","button_pressed":"2","name":"valence","trial_type":"image-button-response","trial_index":47,"time_elapsed":193014,"internal_node_id":"0.0-47.0","participant_id":"A3L2UB07EZJAMD"},{"rt":7441,"response":"20","name":"rating","trial_type":"image-slider-response","trial_index":48,"time_elapsed":200457,"internal_node_id":"0.0-48.0","participant_id":"A3L2UB07EZJAMD"},{"rt":2214,"stimulus":"stimuli/58.jpg","button_pressed":"2","name":"emotionType","trial_type":"image-button-response","trial_index":49,"time_elapsed":202673,"internal_node_id":"0.0-49.0","participant_id":"A3L2UB07EZJAMD"},{"rt":null,"stimulus":"<p style=\"font-size: 48px;\">+</p>","key_press":null,"Name":"fixation","trial_type":"html-keyboard-response","trial_index":50,"time_elapsed":203675,"internal_node_id":"0.0-50.0","participant_id":"A3L2UB07EZJAMD"},{"rt":null,"stimulus":"stimuli/44.jpg","button_pressed":null,"name":"noRating","trial_type":"image-button-response","trial_index":51,"time_elapsed":208677,"internal_node_id":"0.0-51.0","participant_id":"A3L2UB07EZJAMD"},{"rt":2038,"stimulus":"stimuli/44.jpg","button_pressed":"2","name":"valence","trial_type":"image-button-response","trial_index":52,"time_elapsed":210717,"internal_node_id":"0.0-52.0","participant_id":"A3L2UB07EZJAMD"},{"rt":4062,"response":"19","name":"rating","trial_type":"image-slider-response","trial_index":53,"time_elapsed":214780,"internal_node_id":"0.0-53.0","participant_id":"A3L2UB07EZJAMD"},{"rt":3933,"stimulus":"stimuli/44.jpg","button_pressed":"2","name":"emotionType","trial_type":"image-button-response","trial_index":54,"time_elapsed":218717,"internal_node_id":"0.0-54.0","participant_id":"A3L2UB07EZJAMD"},{"rt":null,"stimulus":"<p style=\"font-size: 48px;\">+</p>","key_press":null,"Name":"fixation","trial_type":"html-keyboard-response","trial_index":55,"time_elapsed":219720,"internal_node_id":"0.0-55.0","participant_id":"A3L2UB07EZJAMD"},{"rt":null,"stimulus":"stimuli/63.jpg","button_pressed":null,"name":"noRating","trial_type":"image-button-response","trial_index":56,"time_elapsed":224723,"internal_node_id":"0.0-56.0","participant_id":"A3L2UB07EZJAMD"},{"rt":2225,"stimulus":"stimuli/63.jpg","button_pressed":"0","name":"valence","trial_type":"image-button-response","trial_index":57,"time_elapsed":226950,"internal_node_id":"0.0-57.0","participant_id":"A3L2UB07EZJAMD"},{"rt":3708,"response":"27","name":"rating","trial_type":"image-slider-response","trial_index":58,"time_elapsed":230660,"internal_node_id":"0.0-58.0","participant_id":"A3L2UB07EZJAMD"},{"rt":8356,"stimulus":"stimuli/63.jpg","button_pressed":"0","name":"emotionType","trial_type":"image-button-response","trial_index":59,"time_elapsed":239018,"internal_node_id":"0.0-59.0","participant_id":"A3L2UB07EZJAMD"},{"rt":5677,"responses":"{\"Q0\":\"sky\"}","trial_type":"survey-text","trial_index":60,"time_elapsed":244697,"internal_node_id":"0.0-60.0-0.0","participant_id":"A3L2UB07EZJAMD"},{"rt":null,"stimulus":"<p style=\"font-size: 48px;\">+</p>","key_press":null,"Name":"fixation","trial_type":"html-keyboard-response","trial_index":61,"time_elapsed":245700,"internal_node_id":"0.0-61.0","participant_id":"A3L2UB07EZJAMD"},{"rt":null,"stimulus":"stimuli/46.jpg","button_pressed":null,"name":"noRating","trial_type":"image-button-response","trial_index":62,"time_elapsed":250701,"internal_node_id":"0.0-62.0","participant_id":"A3L2UB07EZJAMD"},{"rt":1214,"stimulus":"stimuli/46.jpg","button_pressed":"2","name":"valence","trial_type":"image-button-response","trial_index":63,"time_elapsed":251917,"internal_node_id":"0.0-63.0","participant_id":"A3L2UB07EZJAMD"},{"rt":5882,"response":"15","name":"rating","trial_type":"image-slider-response","trial_index":64,"time_elapsed":257801,"internal_node_id":"0.0-64.0","participant_id":"A3L2UB07EZJAMD"},{"rt":1234,"stimulus":"stimuli/46.jpg","button_pressed":"2","name":"emotionType","trial_type":"image-button-response","trial_index":65,"time_elapsed":259037,"internal_node_id":"0.0-65.0","participant_id":"A3L2UB07EZJAMD"},{"rt":null,"stimulus":"<p style=\"font-size: 48px;\">+</p>","key_press":null,"Name":"fixation","trial_type":"html-keyboard-response","trial_index":66,"time_elapsed":259539,"internal_node_id":"0.0-66.0","participant_id":"A3L2UB07EZJAMD"},{"rt":null,"stimulus":"stimuli/57.jpg","button_pressed":null,"name":"noRating","trial_type":"image-button-response","trial_index":67,"time_elapsed":264540,"internal_node_id":"0.0-67.0","participant_id":"A3L2UB07EZJAMD"},{"rt":2210,"stimulus":"stimuli/57.jpg","button_pressed":"2","name":"valence","trial_type":"image-button-response","trial_index":68,"time_elapsed":266770,"internal_node_id":"0.0-68.0","participant_id":"A3L2UB07EZJAMD"},{"rt":4200,"response":"15","name":"rating","trial_type":"image-slider-response","trial_index":69,"time_elapsed":270972,"internal_node_id":"0.0-69.0","participant_id":"A3L2UB07EZJAMD"},{"rt":4294,"stimulus":"stimuli/57.jpg","button_pressed":"2","name":"emotionType","trial_type":"image-button-response","trial_index":70,"time_elapsed":275268,"internal_node_id":"0.0-70.0","participant_id":"A3L2UB07EZJAMD"},{"rt":null,"stimulus":"<p style=\"font-size: 48px;\">+</p>","key_press":null,"Name":"fixation","trial_type":"html-keyboard-response","trial_index":71,"time_elapsed":275770,"internal_node_id":"0.0-71.0","participant_id":"A3L2UB07EZJAMD"},{"rt":null,"stimulus":"stimuli/59.jpg","button_pressed":null,"name":"noRating","trial_type":"image-button-response","trial_index":72,"time_elapsed":280772,"internal_node_id":"0.0-72.0","participant_id":"A3L2UB07EZJAMD"},{"rt":1715,"stimulus":"stimuli/59.jpg","button_pressed":"0","name":"valence","trial_type":"image-button-response","trial_index":73,"time_elapsed":282488,"internal_node_id":"0.0-73.0","participant_id":"A3L2UB07EZJAMD"},{"rt":6671,"response":"15","name":"rating","trial_type":"image-slider-response","trial_index":74,"time_elapsed":289161,"internal_node_id":"0.0-74.0","participant_id":"A3L2UB07EZJAMD"},{"rt":1572,"stimulus":"stimuli/59.jpg","button_pressed":"0","name":"emotionType","trial_type":"image-button-response","trial_index":75,"time_elapsed":290735,"internal_node_id":"0.0-75.0","participant_id":"A3L2UB07EZJAMD"},{"rt":null,"stimulus":"<p style=\"font-size: 48px;\">+</p>","key_press":null,"Name":"fixation","trial_type":"html-keyboard-response","trial_index":76,"time_elapsed":291237,"internal_node_id":"0.0-76.0","participant_id":"A3L2UB07EZJAMD"},{"rt":null,"stimulus":"stimuli/56.jpg","button_pressed":null,"name":"noRating","trial_type":"image-button-response","trial_index":77,"time_elapsed":296239,"internal_node_id":"0.0-77.0","participant_id":"A3L2UB07EZJAMD"},{"rt":1303,"stimulus":"stimuli/56.jpg","button_pressed":"0","name":"valence","trial_type":"image-button-response","trial_index":78,"time_elapsed":297543,"internal_node_id":"0.0-78.0","participant_id":"A3L2UB07EZJAMD"},{"rt":3476,"response":"31","name":"rating","trial_type":"image-slider-response","trial_index":79,"time_elapsed":301022,"internal_node_id":"0.0-79.0","participant_id":"A3L2UB07EZJAMD"},{"rt":1569,"stimulus":"stimuli/56.jpg","button_pressed":"0","name":"emotionType","trial_type":"image-button-response","trial_index":80,"time_elapsed":302593,"internal_node_id":"0.0-80.0","participant_id":"A3L2UB07EZJAMD"},{"rt":null,"stimulus":"<p style=\"font-size: 48px;\">+</p>","key_press":null,"Name":"fixation","trial_type":"html-keyboard-response","trial_index":81,"time_elapsed":304115,"internal_node_id":"0.0-81.0","participant_id":"A3L2UB07EZJAMD"},{"rt":null,"stimulus":"stimuli/8.jpg","button_pressed":null,"name":"noRating","trial_type":"image-button-response","trial_index":82,"time_elapsed":309117,"internal_node_id":"0.0-82.0","participant_id":"A3L2UB07EZJAMD"},{"rt":1900,"stimulus":"stimuli/8.jpg","button_pressed":"0","name":"valence","trial_type":"image-button-response","trial_index":83,"time_elapsed":311019,"internal_node_id":"0.0-83.0","participant_id":"A3L2UB07EZJAMD"},{"rt":4293,"response":"33","name":"rating","trial_type":"image-slider-response","trial_index":84,"time_elapsed":315315,"internal_node_id":"0.0-84.0","participant_id":"A3L2UB07EZJAMD"},{"rt":908,"stimulus":"stimuli/8.jpg","button_pressed":"0","name":"emotionType","trial_type":"image-button-response","trial_index":85,"time_elapsed":316225,"internal_node_id":"0.0-85.0","participant_id":"A3L2UB07EZJAMD"},{"rt":6068,"responses":"{\"Q0\":\"our\"}","trial_type":"survey-text","trial_index":86,"time_elapsed":322294,"internal_node_id":"0.0-86.0-0.0","participant_id":"A3L2UB07EZJAMD"},{"rt":null,"stimulus":"<p style=\"font-size: 48px;\">+</p>","key_press":null,"Name":"fixation","trial_type":"html-keyboard-response","trial_index":87,"time_elapsed":323797,"internal_node_id":"0.0-87.0","participant_id":"A3L2UB07EZJAMD"},{"rt":null,"stimulus":"stimuli/27.jpg","button_pressed":null,"name":"noRating","trial_type":"image-button-response","trial_index":88,"time_elapsed":328800,"internal_node_id":"0.0-88.0","participant_id":"A3L2UB07EZJAMD"},{"rt":1278,"stimulus":"stimuli/27.jpg","button_pressed":"0","name":"valence","trial_type":"image-button-response","trial_index":89,"time_elapsed":330079,"internal_node_id":"0.0-89.0","participant_id":"A3L2UB07EZJAMD"},{"rt":3417,"response":"32","name":"rating","trial_type":"image-slider-response","trial_index":90,"time_elapsed":333498,"internal_node_id":"0.0-90.0","participant_id":"A3L2UB07EZJAMD"},{"rt":1041,"stimulus":"stimuli/27.jpg","button_pressed":"0","name":"emotionType","trial_type":"image-button-response","trial_index":91,"time_elapsed":334542,"internal_node_id":"0.0-91.0","participant_id":"A3L2UB07EZJAMD"},{"rt":null,"stimulus":"<p style=\"font-size: 48px;\">+</p>","key_press":null,"Name":"fixation","trial_type":"html-keyboard-response","trial_index":92,"time_elapsed":335544,"internal_node_id":"0.0-92.0","participant_id":"A3L2UB07EZJAMD"},{"rt":null,"stimulus":"stimuli/60.jpg","button_pressed":null,"name":"noRating","trial_type":"image-button-response","trial_index":93,"time_elapsed":340548,"internal_node_id":"0.0-93.0","participant_id":"A3L2UB07EZJAMD"},{"rt":1323,"stimulus":"stimuli/60.jpg","button_pressed":"0","name":"valence","trial_type":"image-button-response","trial_index":94,"time_elapsed":341873,"internal_node_id":"0.0-94.0","participant_id":"A3L2UB07EZJAMD"},{"rt":4813,"response":"7","name":"rating","trial_type":"image-slider-response","trial_index":95,"time_elapsed":346688,"internal_node_id":"0.0-95.0","participant_id":"A3L2UB07EZJAMD"},{"rt":1080,"stimulus":"stimuli/60.jpg","button_pressed":"1","name":"emotionType","trial_type":"image-button-response","trial_index":96,"time_elapsed":347770,"internal_node_id":"0.0-96.0","participant_id":"A3L2UB07EZJAMD"},{"rt":null,"stimulus":"<p style=\"font-size: 48px;\">+</p>","key_press":null,"Name":"fixation","trial_type":"html-keyboard-response","trial_index":97,"time_elapsed":349273,"internal_node_id":"0.0-97.0","participant_id":"A3L2UB07EZJAMD"},{"rt":null,"stimulus":"stimuli/70.jpg","button_pressed":null,"name":"noRating","trial_type":"image-button-response","trial_index":98,"time_elapsed":354275,"internal_node_id":"0.0-98.0","participant_id":"A3L2UB07EZJAMD"},{"rt":1288,"stimulus":"stimuli/70.jpg","button_pressed":"2","name":"valence","trial_type":"image-button-response","trial_index":99,"time_elapsed":355565,"internal_node_id":"0.0-99.0","participant_id":"A3L2UB07EZJAMD"},{"rt":3079,"response":"6","name":"rating","trial_type":"image-slider-response","trial_index":100,"time_elapsed":358647,"internal_node_id":"0.0-100.0","participant_id":"A3L2UB07EZJAMD"},{"rt":2284,"stimulus":"stimuli/70.jpg","button_pressed":"2","name":"emotionType","trial_type":"image-button-response","trial_index":101,"time_elapsed":360933,"internal_node_id":"0.0-101.0","participant_id":"A3L2UB07EZJAMD"},{"rt":null,"stimulus":"<p style=\"font-size: 48px;\">+</p>","key_press":null,"Name":"fixation","trial_type":"html-keyboard-response","trial_index":102,"time_elapsed":362436,"internal_node_id":"0.0-102.0","participant_id":"A3L2UB07EZJAMD"},{"rt":null,"stimulus":"stimuli/52.jpg","button_pressed":null,"name":"noRating","trial_type":"image-button-response","trial_index":103,"time_elapsed":367439,"internal_node_id":"0.0-103.0","participant_id":"A3L2UB07EZJAMD"},{"rt":1174,"stimulus":"stimuli/52.jpg","button_pressed":"0","name":"valence","trial_type":"image-button-response","trial_index":104,"time_elapsed":368614,"internal_node_id":"0.0-104.0","participant_id":"A3L2UB07EZJAMD"},{"rt":3073,"response":"26","name":"rating","trial_type":"image-slider-response","trial_index":105,"time_elapsed":371689,"internal_node_id":"0.0-105.0","participant_id":"A3L2UB07EZJAMD"},{"rt":1376,"stimulus":"stimuli/52.jpg","button_pressed":"1","name":"emotionType","trial_type":"image-button-response","trial_index":106,"time_elapsed":373068,"internal_node_id":"0.0-106.0","participant_id":"A3L2UB07EZJAMD"},{"rt":null,"stimulus":"<p style=\"font-size: 48px;\">+</p>","key_press":null,"Name":"fixation","trial_type":"html-keyboard-response","trial_index":107,"time_elapsed":374574,"internal_node_id":"0.0-107.0","participant_id":"A3L2UB07EZJAMD"},{"rt":null,"stimulus":"stimuli/54.jpg","button_pressed":null,"name":"noRating","trial_type":"image-button-response","trial_index":108,"time_elapsed":379576,"internal_node_id":"0.0-108.0","participant_id":"A3L2UB07EZJAMD"},{"rt":1029,"stimulus":"stimuli/54.jpg","button_pressed":"0","name":"valence","trial_type":"image-button-response","trial_index":109,"time_elapsed":380607,"internal_node_id":"0.0-109.0","participant_id":"A3L2UB07EZJAMD"},{"rt":3808,"response":"12","name":"rating","trial_type":"image-slider-response","trial_index":110,"time_elapsed":384418,"internal_node_id":"0.0-110.0","participant_id":"A3L2UB07EZJAMD"},{"rt":1034,"stimulus":"stimuli/54.jpg","button_pressed":"0","name":"emotionType","trial_type":"image-button-response","trial_index":111,"time_elapsed":385454,"internal_node_id":"0.0-111.0","participant_id":"A3L2UB07EZJAMD"},{"rt":6588,"responses":"{\"Q0\":\"course\"}","trial_type":"survey-text","trial_index":112,"time_elapsed":392044,"internal_node_id":"0.0-112.0-0.0","participant_id":"A3L2UB07EZJAMD"},{"rt":null,"stimulus":"<p style=\"font-size: 48px;\">+</p>","key_press":null,"Name":"fixation","trial_type":"html-keyboard-response","trial_index":113,"time_elapsed":393047,"internal_node_id":"0.0-113.0","participant_id":"A3L2UB07EZJAMD"},{"rt":null,"stimulus":"stimuli/4.jpg","button_pressed":null,"name":"noRating","trial_type":"image-button-response","trial_index":114,"time_elapsed":398050,"internal_node_id":"0.0-114.0","participant_id":"A3L2UB07EZJAMD"},{"rt":1183,"stimulus":"stimuli/4.jpg","button_pressed":"2","name":"valence","trial_type":"image-button-response","trial_index":115,"time_elapsed":399234,"internal_node_id":"0.0-115.0","participant_id":"A3L2UB07EZJAMD"},{"rt":6520,"response":"12","name":"rating","trial_type":"image-slider-response","trial_index":116,"time_elapsed":405756,"internal_node_id":"0.0-116.0","participant_id":"A3L2UB07EZJAMD"},{"rt":1411,"stimulus":"stimuli/4.jpg","button_pressed":"2","name":"emotionType","trial_type":"image-button-response","trial_index":117,"time_elapsed":407170,"internal_node_id":"0.0-117.0","participant_id":"A3L2UB07EZJAMD"},{"rt":null,"stimulus":"<p style=\"font-size: 48px;\">+</p>","key_press":null,"Name":"fixation","trial_type":"html-keyboard-response","trial_index":118,"time_elapsed":408671,"internal_node_id":"0.0-118.0","participant_id":"A3L2UB07EZJAMD"},{"rt":null,"stimulus":"stimuli/55.jpg","button_pressed":null,"name":"noRating","trial_type":"image-button-response","trial_index":119,"time_elapsed":413674,"internal_node_id":"0.0-119.0","participant_id":"A3L2UB07EZJAMD"},{"rt":1305,"stimulus":"stimuli/55.jpg","button_pressed":"0","name":"valence","trial_type":"image-button-response","trial_index":120,"time_elapsed":414981,"internal_node_id":"0.0-120.0","participant_id":"A3L2UB07EZJAMD"},{"rt":4308,"response":"10","name":"rating","trial_type":"image-slider-response","trial_index":121,"time_elapsed":419291,"internal_node_id":"0.0-121.0","participant_id":"A3L2UB07EZJAMD"},{"rt":920,"stimulus":"stimuli/55.jpg","button_pressed":"0","name":"emotionType","trial_type":"image-button-response","trial_index":122,"time_elapsed":420213,"internal_node_id":"0.0-122.0","participant_id":"A3L2UB07EZJAMD"},{"rt":null,"stimulus":"<p style=\"font-size: 48px;\">+</p>","key_press":null,"Name":"fixation","trial_type":"html-keyboard-response","trial_index":123,"time_elapsed":421216,"internal_node_id":"0.0-123.0","participant_id":"A3L2UB07EZJAMD"},{"rt":null,"stimulus":"stimuli/7.jpg","button_pressed":null,"name":"noRating","trial_type":"image-button-response","trial_index":124,"time_elapsed":426220,"internal_node_id":"0.0-124.0","participant_id":"A3L2UB07EZJAMD"},{"rt":2399,"stimulus":"stimuli/7.jpg","button_pressed":"0","name":"valence","trial_type":"image-button-response","trial_index":125,"time_elapsed":428620,"internal_node_id":"0.0-125.0","participant_id":"A3L2UB07EZJAMD"},{"rt":3650,"response":"4","name":"rating","trial_type":"image-slider-response","trial_index":126,"time_elapsed":432272,"internal_node_id":"0.0-126.0","participant_id":"A3L2UB07EZJAMD"},{"rt":796,"stimulus":"stimuli/7.jpg","button_pressed":"0","name":"emotionType","trial_type":"image-button-response","trial_index":127,"time_elapsed":433070,"internal_node_id":"0.0-127.0","participant_id":"A3L2UB07EZJAMD"},{"rt":null,"stimulus":"<p style=\"font-size: 48px;\">+</p>","key_press":null,"Name":"fixation","trial_type":"html-keyboard-response","trial_index":128,"time_elapsed":434080,"internal_node_id":"0.0-128.0","participant_id":"A3L2UB07EZJAMD"},{"rt":null,"stimulus":"stimuli/26.jpg","button_pressed":null,"name":"noRating","trial_type":"image-button-response","trial_index":129,"time_elapsed":439082,"internal_node_id":"0.0-129.0","participant_id":"A3L2UB07EZJAMD"},{"rt":3674,"stimulus":"stimuli/26.jpg","button_pressed":"2","name":"valence","trial_type":"image-button-response","trial_index":130,"time_elapsed":442758,"internal_node_id":"0.0-130.0","participant_id":"A3L2UB07EZJAMD"},{"rt":5040,"response":"17","name":"rating","trial_type":"image-slider-response","trial_index":131,"time_elapsed":447800,"internal_node_id":"0.0-131.0","participant_id":"A3L2UB07EZJAMD"},{"rt":1630,"stimulus":"stimuli/26.jpg","button_pressed":"2","name":"emotionType","trial_type":"image-button-response","trial_index":132,"time_elapsed":449432,"internal_node_id":"0.0-132.0","participant_id":"A3L2UB07EZJAMD"},{"rt":null,"stimulus":"<p style=\"font-size: 48px;\">+</p>","key_press":null,"Name":"fixation","trial_type":"html-keyboard-response","trial_index":133,"time_elapsed":450436,"internal_node_id":"0.0-133.0","participant_id":"A3L2UB07EZJAMD"},{"rt":null,"stimulus":"stimuli/64.jpg","button_pressed":null,"name":"noRating","trial_type":"image-button-response","trial_index":134,"time_elapsed":455439,"internal_node_id":"0.0-134.0","participant_id":"A3L2UB07EZJAMD"},{"rt":1087,"stimulus":"stimuli/64.jpg","button_pressed":"0","name":"valence","trial_type":"image-button-response","trial_index":135,"time_elapsed":456527,"internal_node_id":"0.0-135.0","participant_id":"A3L2UB07EZJAMD"},{"rt":3617,"response":"23","name":"rating","trial_type":"image-slider-response","trial_index":136,"time_elapsed":460145,"internal_node_id":"0.0-136.0","participant_id":"A3L2UB07EZJAMD"},{"rt":1295,"stimulus":"stimuli/64.jpg","button_pressed":"1","name":"emotionType","trial_type":"image-button-response","trial_index":137,"time_elapsed":461443,"internal_node_id":"0.0-137.0","participant_id":"A3L2UB07EZJAMD"},{"rt":5475,"responses":"{\"Q0\":\"we\"}","trial_type":"survey-text","trial_index":138,"time_elapsed":466921,"internal_node_id":"0.0-138.0-0.0","participant_id":"A3L2UB07EZJAMD"},{"rt":null,"stimulus":"<p style=\"font-size: 48px;\">+</p>","key_press":null,"Name":"fixation","trial_type":"html-keyboard-response","trial_index":139,"time_elapsed":468423,"internal_node_id":"0.0-139.0","participant_id":"A3L2UB07EZJAMD"},{"rt":null,"stimulus":"stimuli/24.jpg","button_pressed":null,"name":"noRating","trial_type":"image-button-response","trial_index":140,"time_elapsed":473425,"internal_node_id":"0.0-140.0","participant_id":"A3L2UB07EZJAMD"},{"rt":884,"stimulus":"stimuli/24.jpg","button_pressed":"2","name":"valence","trial_type":"image-button-response","trial_index":141,"time_elapsed":474310,"internal_node_id":"0.0-141.0","participant_id":"A3L2UB07EZJAMD"},{"rt":3188,"response":"22","name":"rating","trial_type":"image-slider-response","trial_index":142,"time_elapsed":477501,"internal_node_id":"0.0-142.0","participant_id":"A3L2UB07EZJAMD"},{"rt":1656,"stimulus":"stimuli/24.jpg","button_pressed":"2","name":"emotionType","trial_type":"image-button-response","trial_index":143,"time_elapsed":479159,"internal_node_id":"0.0-143.0","participant_id":"A3L2UB07EZJAMD"},{"rt":null,"stimulus":"<p style=\"font-size: 48px;\">+</p>","key_press":null,"Name":"fixation","trial_type":"html-keyboard-response","trial_index":144,"time_elapsed":479662,"internal_node_id":"0.0-144.0","participant_id":"A3L2UB07EZJAMD"},{"rt":null,"stimulus":"stimuli/66.jpg","button_pressed":null,"name":"noRating","trial_type":"image-button-response","trial_index":145,"time_elapsed":484663,"internal_node_id":"0.0-145.0","participant_id":"A3L2UB07EZJAMD"},{"rt":1681,"stimulus":"stimuli/66.jpg","button_pressed":"0","name":"valence","trial_type":"image-button-response","trial_index":146,"time_elapsed":486346,"internal_node_id":"0.0-146.0","participant_id":"A3L2UB07EZJAMD"},{"rt":3562,"response":"4","name":"rating","trial_type":"image-slider-response","trial_index":147,"time_elapsed":489918,"internal_node_id":"0.0-147.0","participant_id":"A3L2UB07EZJAMD"},{"rt":2223,"stimulus":"stimuli/66.jpg","button_pressed":"0","name":"emotionType","trial_type":"image-button-response","trial_index":148,"time_elapsed":492143,"internal_node_id":"0.0-148.0","participant_id":"A3L2UB07EZJAMD"},{"rt":null,"stimulus":"<p style=\"font-size: 48px;\">+</p>","key_press":null,"Name":"fixation","trial_type":"html-keyboard-response","trial_index":149,"time_elapsed":493646,"internal_node_id":"0.0-149.0","participant_id":"A3L2UB07EZJAMD"},{"rt":null,"stimulus":"stimuli/34.jpg","button_pressed":null,"name":"noRating","trial_type":"image-button-response","trial_index":150,"time_elapsed":498647,"internal_node_id":"0.0-150.0","participant_id":"A3L2UB07EZJAMD"},{"rt":2559,"stimulus":"stimuli/34.jpg","button_pressed":"0","name":"valence","trial_type":"image-button-response","trial_index":151,"time_elapsed":501209,"internal_node_id":"0.0-151.0","participant_id":"A3L2UB07EZJAMD"},{"rt":2903,"response":"14","name":"rating","trial_type":"image-slider-response","trial_index":152,"time_elapsed":504114,"internal_node_id":"0.0-152.0","participant_id":"A3L2UB07EZJAMD"},{"rt":849,"stimulus":"stimuli/34.jpg","button_pressed":"0","name":"emotionType","trial_type":"image-button-response","trial_index":153,"time_elapsed":504966,"internal_node_id":"0.0-153.0","participant_id":"A3L2UB07EZJAMD"},{"rt":null,"stimulus":"<p style=\"font-size: 48px;\">+</p>","key_press":null,"Name":"fixation","trial_type":"html-keyboard-response","trial_index":154,"time_elapsed":505968,"internal_node_id":"0.0-154.0","participant_id":"A3L2UB07EZJAMD"},{"rt":null,"stimulus":"stimuli/37.jpg","button_pressed":null,"name":"noRating","trial_type":"image-button-response","trial_index":155,"time_elapsed":510971,"internal_node_id":"0.0-155.0","participant_id":"A3L2UB07EZJAMD"},{"rt":832,"stimulus":"stimuli/37.jpg","button_pressed":"0","name":"valence","trial_type":"image-button-response","trial_index":156,"time_elapsed":511803,"internal_node_id":"0.0-156.0","participant_id":"A3L2UB07EZJAMD"},{"rt":3220,"response":"28","name":"rating","trial_type":"image-slider-response","trial_index":157,"time_elapsed":515026,"internal_node_id":"0.0-157.0","participant_id":"A3L2UB07EZJAMD"},{"rt":1056,"stimulus":"stimuli/37.jpg","button_pressed":"0","name":"emotionType","trial_type":"image-button-response","trial_index":158,"time_elapsed":516083,"internal_node_id":"0.0-158.0","participant_id":"A3L2UB07EZJAMD"},{"rt":null,"stimulus":"<p style=\"font-size: 48px;\">+</p>","key_press":null,"Name":"fixation","trial_type":"html-keyboard-response","trial_index":159,"time_elapsed":517085,"internal_node_id":"0.0-159.0","participant_id":"A3L2UB07EZJAMD"},{"rt":null,"stimulus":"stimuli/69.jpg","button_pressed":null,"name":"noRating","trial_type":"image-button-response","trial_index":160,"time_elapsed":522086,"internal_node_id":"0.0-160.0","participant_id":"A3L2UB07EZJAMD"},{"rt":1051,"stimulus":"stimuli/69.jpg","button_pressed":"0","name":"valence","trial_type":"image-button-response","trial_index":161,"time_elapsed":523140,"internal_node_id":"0.0-161.0","participant_id":"A3L2UB07EZJAMD"},{"rt":5512,"response":"32","name":"rating","trial_type":"image-slider-response","trial_index":162,"time_elapsed":528655,"internal_node_id":"0.0-162.0","participant_id":"A3L2UB07EZJAMD"},{"rt":1282,"stimulus":"stimuli/69.jpg","button_pressed":"0","name":"emotionType","trial_type":"image-button-response","trial_index":163,"time_elapsed":529939,"internal_node_id":"0.0-163.0","participant_id":"A3L2UB07EZJAMD"},{"rt":3810,"stimulus":"stimuli/ins/Slide8.JPG","button_pressed":"0","trial_type":"image-button-response","trial_index":164,"time_elapsed":533750,"internal_node_id":"0.0-164.0","participant_id":"A3L2UB07EZJAMD"}]