[{"rt":10142,"responses":"{\"Q0\":\"A3POD149IG0DIW\"}","trial_type":"survey-text","trial_index":0,"time_elapsed":10153,"internal_node_id":"0.0-0.0-0.0","participant_id":"A3POD149IG0DIW"},{"rt":2183,"stimulus":"stimuli/ins/Slide1.JPG","button_pressed":"0","Name":"instructions","trial_type":"image-button-response","trial_index":1,"time_elapsed":12345,"internal_node_id":"0.0-1.0","participant_id":"A3POD149IG0DIW"},{"rt":1483,"stimulus":"stimuli/ins/Slide2.JPG","button_pressed":"0","Name":"instructions","trial_type":"image-button-response","trial_index":2,"time_elapsed":13832,"internal_node_id":"0.0-2.0","participant_id":"A3POD149IG0DIW"},{"rt":24689,"stimulus":"stimuli/ins/Slide3.JPG","button_pressed":"0","Name":"instructions","trial_type":"image-button-response","trial_index":3,"time_elapsed":38523,"internal_node_id":"0.0-3.0","participant_id":"A3POD149IG0DIW"},{"rt":3455,"stimulus":"stimuli/ins/Slide4.JPG","button_pressed":"0","Name":"instructions","trial_type":"image-button-response","trial_index":4,"time_elapsed":41982,"internal_node_id":"0.0-4.0","participant_id":"A3POD149IG0DIW"},{"rt":5247,"stimulus":"stimuli/ins/Slide5.JPG","button_pressed":"0","Name":"instructions","trial_type":"image-button-response","trial_index":5,"time_elapsed":47232,"internal_node_id":"0.0-5.0","participant_id":"A3POD149IG0DIW"},{"rt":4261,"stimulus":"stimuli/ins/Slide6.JPG","button_pressed":"0","Name":"instructions","trial_type":"image-button-response","trial_index":6,"time_elapsed":51495,"internal_node_id":"0.0-6.0","participant_id":"A3POD149IG0DIW"},{"rt":4492,"stimulus":"stimuli/ins/Slide7.JPG","button_pressed":"0","Name":"instructions","trial_type":"image-button-response","trial_index":7,"time_elapsed":55989,"internal_node_id":"0.0-7.0","participant_id":"A3POD149IG0DIW"},{"rt":6271,"responses":"{\"Q0\":\"but\"}","trial_type":"survey-text","trial_index":8,"time_elapsed":62264,"internal_node_id":"0.0-8.0-0.0","participant_id":"A3POD149IG0DIW"},{"rt":null,"stimulus":"<p style=\"font-size: 48px;\">+</p>","key_press":null,"Name":"fixation","trial_type":"html-keyboard-response","trial_index":9,"time_elapsed":63770,"internal_node_id":"0.0-9.0","participant_id":"A3POD149IG0DIW"},{"rt":null,"stimulus":"stimuli/18.jpg","button_pressed":null,"name":"noRating","trial_type":"image-button-response","trial_index":10,"time_elapsed":68781,"internal_node_id":"0.0-10.0","participant_id":"A3POD149IG0DIW"},{"rt":1552,"stimulus":"stimuli/18.jpg","button_pressed":"0","name":"valence","trial_type":"image-button-response","trial_index":11,"time_elapsed":70340,"internal_node_id":"0.0-11.0","participant_id":"A3POD149IG0DIW"},{"rt":3783,"response":"59","name":"rating","trial_type":"image-slider-response","trial_index":12,"time_elapsed":74128,"internal_node_id":"0.0-12.0","participant_id":"A3POD149IG0DIW"},{"rt":5453,"stimulus":"stimuli/18.jpg","button_pressed":"1","name":"emotionType","trial_type":"image-button-response","trial_index":13,"time_elapsed":79585,"internal_node_id":"0.0-13.0","participant_id":"A3POD149IG0DIW"},{"rt":null,"stimulus":"<p style=\"font-size: 48px;\">+</p>","key_press":null,"Name":"fixation","trial_type":"html-keyboard-response","trial_index":14,"time_elapsed":80088,"internal_node_id":"0.0-14.0","participant_id":"A3POD149IG0DIW"},{"rt":null,"stimulus":"stimuli/13.jpg","button_pressed":null,"name":"noRating","trial_type":"image-button-response","trial_index":15,"time_elapsed":85103,"internal_node_id":"0.0-15.0","participant_id":"A3POD149IG0DIW"},{"rt":2540,"stimulus":"stimuli/13.jpg","button_pressed":"0","name":"valence","trial_type":"image-button-response","trial_index":16,"time_elapsed":87649,"internal_node_id":"0.0-16.0","participant_id":"A3POD149IG0DIW"},{"rt":9243,"response":"15","name":"rating","trial_type":"image-slider-response","trial_index":17,"time_elapsed":96896,"internal_node_id":"0.0-17.0","participant_id":"A3POD149IG0DIW"},{"rt":2225,"stimulus":"stimuli/13.jpg","button_pressed":"0","name":"emotionType","trial_type":"image-button-response","trial_index":18,"time_elapsed":99124,"internal_node_id":"0.0-18.0","participant_id":"A3POD149IG0DIW"},{"rt":null,"stimulus":"<p style=\"font-size: 48px;\">+</p>","key_press":null,"Name":"fixation","trial_type":"html-keyboard-response","trial_index":19,"time_elapsed":100630,"internal_node_id":"0.0-19.0","participant_id":"A3POD149IG0DIW"},{"rt":null,"stimulus":"stimuli/36.jpg","button_pressed":null,"name":"noRating","trial_type":"image-button-response","trial_index":20,"time_elapsed":105636,"internal_node_id":"0.0-20.0","participant_id":"A3POD149IG0DIW"},{"rt":2178,"stimulus":"stimuli/36.jpg","button_pressed":"0","name":"valence","trial_type":"image-button-response","trial_index":21,"time_elapsed":107824,"internal_node_id":"0.0-21.0","participant_id":"A3POD149IG0DIW"},{"rt":4723,"response":"7","name":"rating","trial_type":"image-slider-response","trial_index":22,"time_elapsed":112550,"internal_node_id":"0.0-22.0","participant_id":"A3POD149IG0DIW"},{"rt":1336,"stimulus":"stimuli/36.jpg","button_pressed":"1","name":"emotionType","trial_type":"image-button-response","trial_index":23,"time_elapsed":113890,"internal_node_id":"0.0-23.0","participant_id":"A3POD149IG0DIW"},{"rt":null,"stimulus":"<p style=\"font-size: 48px;\">+</p>","key_press":null,"Name":"fixation","trial_type":"html-keyboard-response","trial_index":24,"time_elapsed":114394,"internal_node_id":"0.0-24.0","participant_id":"A3POD149IG0DIW"},{"rt":null,"stimulus":"stimuli/9.jpg","button_pressed":null,"name":"noRating","trial_type":"image-button-response","trial_index":25,"time_elapsed":119399,"internal_node_id":"0.0-25.0","participant_id":"A3POD149IG0DIW"},{"rt":2018,"stimulus":"stimuli/9.jpg","button_pressed":"0","name":"valence","trial_type":"image-button-response","trial_index":26,"time_elapsed":121419,"internal_node_id":"0.0-26.0","participant_id":"A3POD149IG0DIW"},{"rt":4236,"response":"54","name":"rating","trial_type":"image-slider-response","trial_index":27,"time_elapsed":125658,"internal_node_id":"0.0-27.0","participant_id":"A3POD149IG0DIW"},{"rt":2018,"stimulus":"stimuli/9.jpg","button_pressed":"1","name":"emotionType","trial_type":"image-button-response","trial_index":28,"time_elapsed":127681,"internal_node_id":"0.0-28.0","participant_id":"A3POD149IG0DIW"},{"rt":null,"stimulus":"<p style=\"font-size: 48px;\">+</p>","key_press":null,"Name":"fixation","trial_type":"html-keyboard-response","trial_index":29,"time_elapsed":128683,"internal_node_id":"0.0-29.0","participant_id":"A3POD149IG0DIW"},{"rt":null,"stimulus":"stimuli/6.jpg","button_pressed":null,"name":"noRating","trial_type":"image-button-response","trial_index":30,"time_elapsed":133693,"internal_node_id":"0.0-30.0","participant_id":"A3POD149IG0DIW"},{"rt":2130,"stimulus":"stimuli/6.jpg","button_pressed":"0","name":"valence","trial_type":"image-button-response","trial_index":31,"time_elapsed":135830,"internal_node_id":"0.0-31.0","participant_id":"A3POD149IG0DIW"},{"rt":10351,"response":"43","name":"rating","trial_type":"image-slider-response","trial_index":32,"time_elapsed":146184,"internal_node_id":"0.0-32.0","participant_id":"A3POD149IG0DIW"},{"rt":2068,"stimulus":"stimuli/6.jpg","button_pressed":"0","name":"emotionType","trial_type":"image-button-response","trial_index":33,"time_elapsed":148257,"internal_node_id":"0.0-33.0","participant_id":"A3POD149IG0DIW"},{"rt":5331,"responses":"{\"Q0\":\"rock\"}","trial_type":"survey-text","trial_index":34,"time_elapsed":153593,"internal_node_id":"0.0-34.0-0.0","participant_id":"A3POD149IG0DIW"},{"rt":null,"stimulus":"<p style=\"font-size: 48px;\">+</p>","key_press":null,"Name":"fixation","trial_type":"html-keyboard-response","trial_index":35,"time_elapsed":155095,"internal_node_id":"0.0-35.0","participant_id":"A3POD149IG0DIW"},{"rt":null,"stimulus":"stimuli/71.jpg","button_pressed":null,"name":"noRating","trial_type":"image-button-response","trial_index":36,"time_elapsed":160111,"internal_node_id":"0.0-36.0","participant_id":"A3POD149IG0DIW"},{"rt":6245,"stimulus":"stimuli/71.jpg","button_pressed":"0","name":"valence","trial_type":"image-button-response","trial_index":37,"time_elapsed":166359,"internal_node_id":"0.0-37.0","participant_id":"A3POD149IG0DIW"},{"rt":2993,"response":"15","name":"rating","trial_type":"image-slider-response","trial_index":38,"time_elapsed":169356,"internal_node_id":"0.0-38.0","participant_id":"A3POD149IG0DIW"},{"rt":1762,"stimulus":"stimuli/71.jpg","button_pressed":"1","name":"emotionType","trial_type":"image-button-response","trial_index":39,"time_elapsed":171121,"internal_node_id":"0.0-39.0","participant_id":"A3POD149IG0DIW"},{"rt":null,"stimulus":"<p style=\"font-size: 48px;\">+</p>","key_press":null,"Name":"fixation","trial_type":"html-keyboard-response","trial_index":40,"time_elapsed":172631,"internal_node_id":"0.0-40.0","participant_id":"A3POD149IG0DIW"},{"rt":null,"stimulus":"stimuli/50.jpg","button_pressed":null,"name":"noRating","trial_type":"image-button-response","trial_index":41,"time_elapsed":177658,"internal_node_id":"0.0-41.0","participant_id":"A3POD149IG0DIW"},{"rt":1425,"stimulus":"stimuli/50.jpg","button_pressed":"0","name":"valence","trial_type":"image-button-response","trial_index":42,"time_elapsed":179088,"internal_node_id":"0.0-42.0","participant_id":"A3POD149IG0DIW"},{"rt":4638,"response":"40","name":"rating","trial_type":"image-slider-response","trial_index":43,"time_elapsed":183729,"internal_node_id":"0.0-43.0","participant_id":"A3POD149IG0DIW"},{"rt":2861,"stimulus":"stimuli/50.jpg","button_pressed":"1","name":"emotionType","trial_type":"image-button-response","trial_index":44,"time_elapsed":186594,"internal_node_id":"0.0-44.0","participant_id":"A3POD149IG0DIW"},{"rt":null,"stimulus":"<p style=\"font-size: 48px;\">+</p>","key_press":null,"Name":"fixation","trial_type":"html-keyboard-response","trial_index":45,"time_elapsed":187608,"internal_node_id":"0.0-45.0","participant_id":"A3POD149IG0DIW"},{"rt":null,"stimulus":"stimuli/61.jpg","button_pressed":null,"name":"noRating","trial_type":"image-button-response","trial_index":46,"time_elapsed":192611,"internal_node_id":"0.0-46.0","participant_id":"A3POD149IG0DIW"},{"rt":1605,"stimulus":"stimuli/61.jpg","button_pressed":"0","name":"valence","trial_type":"image-button-response","trial_index":47,"time_elapsed":194218,"internal_node_id":"0.0-47.0","participant_id":"A3POD149IG0DIW"},{"rt":3771,"response":"25","name":"rating","trial_type":"image-slider-response","trial_index":48,"time_elapsed":197993,"internal_node_id":"0.0-48.0","participant_id":"A3POD149IG0DIW"},{"rt":1630,"stimulus":"stimuli/61.jpg","button_pressed":"0","name":"emotionType","trial_type":"image-button-response","trial_index":49,"time_elapsed":199627,"internal_node_id":"0.0-49.0","participant_id":"A3POD149IG0DIW"},{"rt":null,"stimulus":"<p style=\"font-size: 48px;\">+</p>","key_press":null,"Name":"fixation","trial_type":"html-keyboard-response","trial_index":50,"time_elapsed":200130,"internal_node_id":"0.0-50.0","participant_id":"A3POD149IG0DIW"},{"rt":null,"stimulus":"stimuli/68.jpg","button_pressed":null,"name":"noRating","trial_type":"image-button-response","trial_index":51,"time_elapsed":205140,"internal_node_id":"0.0-51.0","participant_id":"A3POD149IG0DIW"},{"rt":1842,"stimulus":"stimuli/68.jpg","button_pressed":"0","name":"valence","trial_type":"image-button-response","trial_index":52,"time_elapsed":206985,"internal_node_id":"0.0-52.0","participant_id":"A3POD149IG0DIW"},{"rt":8437,"response":"43","name":"rating","trial_type":"image-slider-response","trial_index":53,"time_elapsed":215426,"internal_node_id":"0.0-53.0","participant_id":"A3POD149IG0DIW"},{"rt":1288,"stimulus":"stimuli/68.jpg","button_pressed":"0","name":"emotionType","trial_type":"image-button-response","trial_index":54,"time_elapsed":216718,"internal_node_id":"0.0-54.0","participant_id":"A3POD149IG0DIW"},{"rt":null,"stimulus":"<p style=\"font-size: 48px;\">+</p>","key_press":null,"Name":"fixation","trial_type":"html-keyboard-response","trial_index":55,"time_elapsed":218225,"internal_node_id":"0.0-55.0","participant_id":"A3POD149IG0DIW"},{"rt":null,"stimulus":"stimuli/57.jpg","button_pressed":null,"name":"noRating","trial_type":"image-button-response","trial_index":56,"time_elapsed":223231,"internal_node_id":"0.0-56.0","participant_id":"A3POD149IG0DIW"},{"rt":1233,"stimulus":"stimuli/57.jpg","button_pressed":"0","name":"valence","trial_type":"image-button-response","trial_index":57,"time_elapsed":224467,"internal_node_id":"0.0-57.0","participant_id":"A3POD149IG0DIW"},{"rt":4952,"response":"51","name":"rating","trial_type":"image-slider-response","trial_index":58,"time_elapsed":229424,"internal_node_id":"0.0-58.0","participant_id":"A3POD149IG0DIW"},{"rt":1920,"stimulus":"stimuli/57.jpg","button_pressed":"1","name":"emotionType","trial_type":"image-button-response","trial_index":59,"time_elapsed":231348,"internal_node_id":"0.0-59.0","participant_id":"A3POD149IG0DIW"},{"rt":4347,"responses":"{\"Q0\":\"sky\"}","trial_type":"survey-text","trial_index":60,"time_elapsed":235698,"internal_node_id":"0.0-60.0-0.0","participant_id":"A3POD149IG0DIW"},{"rt":null,"stimulus":"<p style=\"font-size: 48px;\">+</p>","key_press":null,"Name":"fixation","trial_type":"html-keyboard-response","trial_index":61,"time_elapsed":237204,"internal_node_id":"0.0-61.0","participant_id":"A3POD149IG0DIW"},{"rt":null,"stimulus":"stimuli/53.jpg","button_pressed":null,"name":"noRating","trial_type":"image-button-response","trial_index":62,"time_elapsed":242208,"internal_node_id":"0.0-62.0","participant_id":"A3POD149IG0DIW"},{"rt":1416,"stimulus":"stimuli/53.jpg","button_pressed":"0","name":"valence","trial_type":"image-button-response","trial_index":63,"time_elapsed":243628,"internal_node_id":"0.0-63.0","participant_id":"A3POD149IG0DIW"},{"rt":4249,"response":"39","name":"rating","trial_type":"image-slider-response","trial_index":64,"time_elapsed":247880,"internal_node_id":"0.0-64.0","participant_id":"A3POD149IG0DIW"},{"rt":2568,"stimulus":"stimuli/53.jpg","button_pressed":"1","name":"emotionType","trial_type":"image-button-response","trial_index":65,"time_elapsed":250451,"internal_node_id":"0.0-65.0","participant_id":"A3POD149IG0DIW"},{"rt":null,"stimulus":"<p style=\"font-size: 48px;\">+</p>","key_press":null,"Name":"fixation","trial_type":"html-keyboard-response","trial_index":66,"time_elapsed":250956,"internal_node_id":"0.0-66.0","participant_id":"A3POD149IG0DIW"},{"rt":null,"stimulus":"stimuli/10.jpg","button_pressed":null,"name":"noRating","trial_type":"image-button-response","trial_index":67,"time_elapsed":255972,"internal_node_id":"0.0-67.0","participant_id":"A3POD149IG0DIW"},{"rt":2129,"stimulus":"stimuli/10.jpg","button_pressed":"0","name":"valence","trial_type":"image-button-response","trial_index":68,"time_elapsed":258126,"internal_node_id":"0.0-68.0","participant_id":"A3POD149IG0DIW"},{"rt":7124,"response":"35","name":"rating","trial_type":"image-slider-response","trial_index":69,"time_elapsed":265253,"internal_node_id":"0.0-69.0","participant_id":"A3POD149IG0DIW"},{"rt":1385,"stimulus":"stimuli/10.jpg","button_pressed":"1","name":"emotionType","trial_type":"image-button-response","trial_index":70,"time_elapsed":266642,"internal_node_id":"0.0-70.0","participant_id":"A3POD149IG0DIW"},{"rt":null,"stimulus":"<p style=\"font-size: 48px;\">+</p>","key_press":null,"Name":"fixation","trial_type":"html-keyboard-response","trial_index":71,"time_elapsed":267146,"internal_node_id":"0.0-71.0","participant_id":"A3POD149IG0DIW"},{"rt":null,"stimulus":"stimuli/56.jpg","button_pressed":null,"name":"noRating","trial_type":"image-button-response","trial_index":72,"time_elapsed":272154,"internal_node_id":"0.0-72.0","participant_id":"A3POD149IG0DIW"},{"rt":1160,"stimulus":"stimuli/56.jpg","button_pressed":"0","name":"valence","trial_type":"image-button-response","trial_index":73,"time_elapsed":273317,"internal_node_id":"0.0-73.0","participant_id":"A3POD149IG0DIW"},{"rt":5285,"response":"63","name":"rating","trial_type":"image-slider-response","trial_index":74,"time_elapsed":278605,"internal_node_id":"0.0-74.0","participant_id":"A3POD149IG0DIW"},{"rt":1398,"stimulus":"stimuli/56.jpg","button_pressed":"0","name":"emotionType","trial_type":"image-button-response","trial_index":75,"time_elapsed":280006,"internal_node_id":"0.0-75.0","participant_id":"A3POD149IG0DIW"},{"rt":null,"stimulus":"<p style=\"font-size: 48px;\">+</p>","key_press":null,"Name":"fixation","trial_type":"html-keyboard-response","trial_index":76,"time_elapsed":280520,"internal_node_id":"0.0-76.0","participant_id":"A3POD149IG0DIW"},{"rt":null,"stimulus":"stimuli/45.jpg","button_pressed":null,"name":"noRating","trial_type":"image-button-response","trial_index":77,"time_elapsed":285524,"internal_node_id":"0.0-77.0","participant_id":"A3POD149IG0DIW"},{"rt":1586,"stimulus":"stimuli/45.jpg","button_pressed":"0","name":"valence","trial_type":"image-button-response","trial_index":78,"time_elapsed":287112,"internal_node_id":"0.0-78.0","participant_id":"A3POD149IG0DIW"},{"rt":6584,"response":"69","name":"rating","trial_type":"image-slider-response","trial_index":79,"time_elapsed":293700,"internal_node_id":"0.0-79.0","participant_id":"A3POD149IG0DIW"},{"rt":5321,"stimulus":"stimuli/45.jpg","button_pressed":"0","name":"emotionType","trial_type":"image-button-response","trial_index":80,"time_elapsed":299024,"internal_node_id":"0.0-80.0","participant_id":"A3POD149IG0DIW"},{"rt":null,"stimulus":"<p style=\"font-size: 48px;\">+</p>","key_press":null,"Name":"fixation","trial_type":"html-keyboard-response","trial_index":81,"time_elapsed":300042,"internal_node_id":"0.0-81.0","participant_id":"A3POD149IG0DIW"},{"rt":null,"stimulus":"stimuli/37.jpg","button_pressed":null,"name":"noRating","trial_type":"image-button-response","trial_index":82,"time_elapsed":305061,"internal_node_id":"0.0-82.0","participant_id":"A3POD149IG0DIW"},{"rt":1599,"stimulus":"stimuli/37.jpg","button_pressed":"0","name":"valence","trial_type":"image-button-response","trial_index":83,"time_elapsed":306664,"internal_node_id":"0.0-83.0","participant_id":"A3POD149IG0DIW"},{"rt":4428,"response":"48","name":"rating","trial_type":"image-slider-response","trial_index":84,"time_elapsed":311098,"internal_node_id":"0.0-84.0","participant_id":"A3POD149IG0DIW"},{"rt":1849,"stimulus":"stimuli/37.jpg","button_pressed":"0","name":"emotionType","trial_type":"image-button-response","trial_index":85,"time_elapsed":312951,"internal_node_id":"0.0-85.0","participant_id":"A3POD149IG0DIW"},{"rt":4152,"responses":"{\"Q0\":\"our\"}","trial_type":"survey-text","trial_index":86,"time_elapsed":317105,"internal_node_id":"0.0-86.0-0.0","participant_id":"A3POD149IG0DIW"},{"rt":null,"stimulus":"<p style=\"font-size: 48px;\">+</p>","key_press":null,"Name":"fixation","trial_type":"html-keyboard-response","trial_index":87,"time_elapsed":318626,"internal_node_id":"0.0-87.0","participant_id":"A3POD149IG0DIW"},{"rt":null,"stimulus":"stimuli/31.jpg","button_pressed":null,"name":"noRating","trial_type":"image-button-response","trial_index":88,"time_elapsed":323643,"internal_node_id":"0.0-88.0","participant_id":"A3POD149IG0DIW"},{"rt":1889,"stimulus":"stimuli/31.jpg","button_pressed":"0","name":"valence","trial_type":"image-button-response","trial_index":89,"time_elapsed":325535,"internal_node_id":"0.0-89.0","participant_id":"A3POD149IG0DIW"},{"rt":4066,"response":"40","name":"rating","trial_type":"image-slider-response","trial_index":90,"time_elapsed":329605,"internal_node_id":"0.0-90.0","participant_id":"A3POD149IG0DIW"},{"rt":4199,"stimulus":"stimuli/31.jpg","button_pressed":"0","name":"emotionType","trial_type":"image-button-response","trial_index":91,"time_elapsed":333809,"internal_node_id":"0.0-91.0","participant_id":"A3POD149IG0DIW"},{"rt":null,"stimulus":"<p style=\"font-size: 48px;\">+</p>","key_press":null,"Name":"fixation","trial_type":"html-keyboard-response","trial_index":92,"time_elapsed":335323,"internal_node_id":"0.0-92.0","participant_id":"A3POD149IG0DIW"},{"rt":null,"stimulus":"stimuli/60.jpg","button_pressed":null,"name":"noRating","trial_type":"image-button-response","trial_index":93,"time_elapsed":340326,"internal_node_id":"0.0-93.0","participant_id":"A3POD149IG0DIW"},{"rt":1509,"stimulus":"stimuli/60.jpg","button_pressed":"0","name":"valence","trial_type":"image-button-response","trial_index":94,"time_elapsed":341839,"internal_node_id":"0.0-94.0","participant_id":"A3POD149IG0DIW"},{"rt":6366,"response":"48","name":"rating","trial_type":"image-slider-response","trial_index":95,"time_elapsed":348209,"internal_node_id":"0.0-95.0","participant_id":"A3POD149IG0DIW"},{"rt":2422,"stimulus":"stimuli/60.jpg","button_pressed":"1","name":"emotionType","trial_type":"image-button-response","trial_index":96,"time_elapsed":350635,"internal_node_id":"0.0-96.0","participant_id":"A3POD149IG0DIW"},{"rt":null,"stimulus":"<p style=\"font-size: 48px;\">+</p>","key_press":null,"Name":"fixation","trial_type":"html-keyboard-response","trial_index":97,"time_elapsed":351637,"internal_node_id":"0.0-97.0","participant_id":"A3POD149IG0DIW"},{"rt":null,"stimulus":"stimuli/26.jpg","button_pressed":null,"name":"noRating","trial_type":"image-button-response","trial_index":98,"time_elapsed":357360,"internal_node_id":"0.0-98.0","participant_id":"A3POD149IG0DIW"},{"rt":44286,"stimulus":"stimuli/26.jpg","button_pressed":"0","name":"valence","trial_type":"image-button-response","trial_index":99,"time_elapsed":401648,"internal_node_id":"0.0-99.0","participant_id":"A3POD149IG0DIW"},{"rt":6833,"response":"54","name":"rating","trial_type":"image-slider-response","trial_index":100,"time_elapsed":408484,"internal_node_id":"0.0-100.0","participant_id":"A3POD149IG0DIW"},{"rt":2470,"stimulus":"stimuli/26.jpg","button_pressed":"0","name":"emotionType","trial_type":"image-button-response","trial_index":101,"time_elapsed":410957,"internal_node_id":"0.0-101.0","participant_id":"A3POD149IG0DIW"},{"rt":null,"stimulus":"<p style=\"font-size: 48px;\">+</p>","key_press":null,"Name":"fixation","trial_type":"html-keyboard-response","trial_index":102,"time_elapsed":412469,"internal_node_id":"0.0-102.0","participant_id":"A3POD149IG0DIW"},{"rt":null,"stimulus":"stimuli/24.jpg","button_pressed":null,"name":"noRating","trial_type":"image-button-response","trial_index":103,"time_elapsed":417472,"internal_node_id":"0.0-103.0","participant_id":"A3POD149IG0DIW"},{"rt":1853,"stimulus":"stimuli/24.jpg","button_pressed":"0","name":"valence","trial_type":"image-button-response","trial_index":104,"time_elapsed":419327,"internal_node_id":"0.0-104.0","participant_id":"A3POD149IG0DIW"},{"rt":3165,"response":"60","name":"rating","trial_type":"image-slider-response","trial_index":105,"time_elapsed":422495,"internal_node_id":"0.0-105.0","participant_id":"A3POD149IG0DIW"},{"rt":1910,"stimulus":"stimuli/24.jpg","button_pressed":"1","name":"emotionType","trial_type":"image-button-response","trial_index":106,"time_elapsed":424409,"internal_node_id":"0.0-106.0","participant_id":"A3POD149IG0DIW"},{"rt":null,"stimulus":"<p style=\"font-size: 48px;\">+</p>","key_press":null,"Name":"fixation","trial_type":"html-keyboard-response","trial_index":107,"time_elapsed":424911,"internal_node_id":"0.0-107.0","participant_id":"A3POD149IG0DIW"},{"rt":null,"stimulus":"stimuli/28.jpg","button_pressed":null,"name":"noRating","trial_type":"image-button-response","trial_index":108,"time_elapsed":429920,"internal_node_id":"0.0-108.0","participant_id":"A3POD149IG0DIW"},{"rt":2599,"stimulus":"stimuli/28.jpg","button_pressed":"0","name":"valence","trial_type":"image-button-response","trial_index":109,"time_elapsed":432524,"internal_node_id":"0.0-109.0","participant_id":"A3POD149IG0DIW"},{"rt":3565,"response":"42","name":"rating","trial_type":"image-slider-response","trial_index":110,"time_elapsed":436094,"internal_node_id":"0.0-110.0","participant_id":"A3POD149IG0DIW"},{"rt":2032,"stimulus":"stimuli/28.jpg","button_pressed":"0","name":"emotionType","trial_type":"image-button-response","trial_index":111,"time_elapsed":438129,"internal_node_id":"0.0-111.0","participant_id":"A3POD149IG0DIW"},{"rt":4506,"responses":"{\"Q0\":\"course\"}","trial_type":"survey-text","trial_index":112,"time_elapsed":442637,"internal_node_id":"0.0-112.0-0.0","participant_id":"A3POD149IG0DIW"},{"rt":null,"stimulus":"<p style=\"font-size: 48px;\">+</p>","key_press":null,"Name":"fixation","trial_type":"html-keyboard-response","trial_index":113,"time_elapsed":443140,"internal_node_id":"0.0-113.0","participant_id":"A3POD149IG0DIW"},{"rt":null,"stimulus":"stimuli/48.jpg","button_pressed":null,"name":"noRating","trial_type":"image-button-response","trial_index":114,"time_elapsed":448145,"internal_node_id":"0.0-114.0","participant_id":"A3POD149IG0DIW"},{"rt":1475,"stimulus":"stimuli/48.jpg","button_pressed":"0","name":"valence","trial_type":"image-button-response","trial_index":115,"time_elapsed":449624,"internal_node_id":"0.0-115.0","participant_id":"A3POD149IG0DIW"},{"rt":5548,"response":"56","name":"rating","trial_type":"image-slider-response","trial_index":116,"time_elapsed":455176,"internal_node_id":"0.0-116.0","participant_id":"A3POD149IG0DIW"},{"rt":1336,"stimulus":"stimuli/48.jpg","button_pressed":"0","name":"emotionType","trial_type":"image-button-response","trial_index":117,"time_elapsed":456515,"internal_node_id":"0.0-117.0","participant_id":"A3POD149IG0DIW"},{"rt":null,"stimulus":"<p style=\"font-size: 48px;\">+</p>","key_press":null,"Name":"fixation","trial_type":"html-keyboard-response","trial_index":118,"time_elapsed":457017,"internal_node_id":"0.0-118.0","participant_id":"A3POD149IG0DIW"},{"rt":null,"stimulus":"stimuli/12.jpg","button_pressed":null,"name":"noRating","trial_type":"image-button-response","trial_index":119,"time_elapsed":462029,"internal_node_id":"0.0-119.0","participant_id":"A3POD149IG0DIW"},{"rt":1307,"stimulus":"stimuli/12.jpg","button_pressed":"0","name":"valence","trial_type":"image-button-response","trial_index":120,"time_elapsed":463340,"internal_node_id":"0.0-120.0","participant_id":"A3POD149IG0DIW"},{"rt":2725,"response":"48","name":"rating","trial_type":"image-slider-response","trial_index":121,"time_elapsed":466068,"internal_node_id":"0.0-121.0","participant_id":"A3POD149IG0DIW"},{"rt":3067,"stimulus":"stimuli/12.jpg","button_pressed":"1","name":"emotionType","trial_type":"image-button-response","trial_index":122,"time_elapsed":469139,"internal_node_id":"0.0-122.0","participant_id":"A3POD149IG0DIW"},{"rt":null,"stimulus":"<p style=\"font-size: 48px;\">+</p>","key_press":null,"Name":"fixation","trial_type":"html-keyboard-response","trial_index":123,"time_elapsed":470142,"internal_node_id":"0.0-123.0","participant_id":"A3POD149IG0DIW"},{"rt":null,"stimulus":"stimuli/5.jpg","button_pressed":null,"name":"noRating","trial_type":"image-button-response","trial_index":124,"time_elapsed":475150,"internal_node_id":"0.0-124.0","participant_id":"A3POD149IG0DIW"},{"rt":1950,"stimulus":"stimuli/5.jpg","button_pressed":"0","name":"valence","trial_type":"image-button-response","trial_index":125,"time_elapsed":477108,"internal_node_id":"0.0-125.0","participant_id":"A3POD149IG0DIW"},{"rt":5479,"response":"38","name":"rating","trial_type":"image-slider-response","trial_index":126,"time_elapsed":482591,"internal_node_id":"0.0-126.0","participant_id":"A3POD149IG0DIW"},{"rt":2446,"stimulus":"stimuli/5.jpg","button_pressed":"1","name":"emotionType","trial_type":"image-button-response","trial_index":127,"time_elapsed":485040,"internal_node_id":"0.0-127.0","participant_id":"A3POD149IG0DIW"},{"rt":null,"stimulus":"<p style=\"font-size: 48px;\">+</p>","key_press":null,"Name":"fixation","trial_type":"html-keyboard-response","trial_index":128,"time_elapsed":486046,"internal_node_id":"0.0-128.0","participant_id":"A3POD149IG0DIW"},{"rt":null,"stimulus":"stimuli/34.jpg","button_pressed":null,"name":"noRating","trial_type":"image-button-response","trial_index":129,"time_elapsed":491080,"internal_node_id":"0.0-129.0","participant_id":"A3POD149IG0DIW"},{"rt":1743,"stimulus":"stimuli/34.jpg","button_pressed":"0","name":"valence","trial_type":"image-button-response","trial_index":130,"time_elapsed":492826,"internal_node_id":"0.0-130.0","participant_id":"A3POD149IG0DIW"},{"rt":3054,"response":"43","name":"rating","trial_type":"image-slider-response","trial_index":131,"time_elapsed":495884,"internal_node_id":"0.0-131.0","participant_id":"A3POD149IG0DIW"},{"rt":2311,"stimulus":"stimuli/34.jpg","button_pressed":"0","name":"emotionType","trial_type":"image-button-response","trial_index":132,"time_elapsed":498199,"internal_node_id":"0.0-132.0","participant_id":"A3POD149IG0DIW"},{"rt":null,"stimulus":"<p style=\"font-size: 48px;\">+</p>","key_press":null,"Name":"fixation","trial_type":"html-keyboard-response","trial_index":133,"time_elapsed":499215,"internal_node_id":"0.0-133.0","participant_id":"A3POD149IG0DIW"},{"rt":null,"stimulus":"stimuli/22.jpg","button_pressed":null,"name":"noRating","trial_type":"image-button-response","trial_index":134,"time_elapsed":504220,"internal_node_id":"0.0-134.0","participant_id":"A3POD149IG0DIW"},{"rt":1178,"stimulus":"stimuli/22.jpg","button_pressed":"0","name":"valence","trial_type":"image-button-response","trial_index":135,"time_elapsed":505402,"internal_node_id":"0.0-135.0","participant_id":"A3POD149IG0DIW"},{"rt":8083,"response":"49","name":"rating","trial_type":"image-slider-response","trial_index":136,"time_elapsed":513491,"internal_node_id":"0.0-136.0","participant_id":"A3POD149IG0DIW"},{"rt":1593,"stimulus":"stimuli/22.jpg","button_pressed":"1","name":"emotionType","trial_type":"image-button-response","trial_index":137,"time_elapsed":515087,"internal_node_id":"0.0-137.0","participant_id":"A3POD149IG0DIW"},{"rt":3507,"responses":"{\"Q0\":\"we\"}","trial_type":"survey-text","trial_index":138,"time_elapsed":518599,"internal_node_id":"0.0-138.0-0.0","participant_id":"A3POD149IG0DIW"},{"rt":null,"stimulus":"<p style=\"font-size: 48px;\">+</p>","key_press":null,"Name":"fixation","trial_type":"html-keyboard-response","trial_index":139,"time_elapsed":519606,"internal_node_id":"0.0-139.0","participant_id":"A3POD149IG0DIW"},{"rt":null,"stimulus":"stimuli/67.jpg","button_pressed":null,"name":"noRating","trial_type":"image-button-response","trial_index":140,"time_elapsed":524609,"internal_node_id":"0.0-140.0","participant_id":"A3POD149IG0DIW"},{"rt":1527,"stimulus":"stimuli/67.jpg","button_pressed":"0","name":"valence","trial_type":"image-button-response","trial_index":141,"time_elapsed":526139,"internal_node_id":"0.0-141.0","participant_id":"A3POD149IG0DIW"},{"rt":4250,"response":"48","name":"rating","trial_type":"image-slider-response","trial_index":142,"time_elapsed":530391,"internal_node_id":"0.0-142.0","participant_id":"A3POD149IG0DIW"},{"rt":1507,"stimulus":"stimuli/67.jpg","button_pressed":"1","name":"emotionType","trial_type":"image-button-response","trial_index":143,"time_elapsed":531904,"internal_node_id":"0.0-143.0","participant_id":"A3POD149IG0DIW"},{"rt":null,"stimulus":"<p style=\"font-size: 48px;\">+</p>","key_press":null,"Name":"fixation","trial_type":"html-keyboard-response","trial_index":144,"time_elapsed":532407,"internal_node_id":"0.0-144.0","participant_id":"A3POD149IG0DIW"},{"rt":null,"stimulus":"stimuli/69.jpg","button_pressed":null,"name":"noRating","trial_type":"image-button-response","trial_index":145,"time_elapsed":537421,"internal_node_id":"0.0-145.0","participant_id":"A3POD149IG0DIW"},{"rt":2961,"stimulus":"stimuli/69.jpg","button_pressed":"0","name":"valence","trial_type":"image-button-response","trial_index":146,"time_elapsed":540384,"internal_node_id":"0.0-146.0","participant_id":"A3POD149IG0DIW"},{"rt":8982,"response":"38","name":"rating","trial_type":"image-slider-response","trial_index":147,"time_elapsed":549369,"internal_node_id":"0.0-147.0","participant_id":"A3POD149IG0DIW"},{"rt":1429,"stimulus":"stimuli/69.jpg","button_pressed":"1","name":"emotionType","trial_type":"image-button-response","trial_index":148,"time_elapsed":550802,"internal_node_id":"0.0-148.0","participant_id":"A3POD149IG0DIW"},{"rt":null,"stimulus":"<p style=\"font-size: 48px;\">+</p>","key_press":null,"Name":"fixation","trial_type":"html-keyboard-response","trial_index":149,"time_elapsed":552313,"internal_node_id":"0.0-149.0","participant_id":"A3POD149IG0DIW"},{"rt":null,"stimulus":"stimuli/39.jpg","button_pressed":null,"name":"noRating","trial_type":"image-button-response","trial_index":150,"time_elapsed":557315,"internal_node_id":"0.0-150.0","participant_id":"A3POD149IG0DIW"},{"rt":1759,"stimulus":"stimuli/39.jpg","button_pressed":"0","name":"valence","trial_type":"image-button-response","trial_index":151,"time_elapsed":559076,"internal_node_id":"0.0-151.0","participant_id":"A3POD149IG0DIW"},{"rt":12194,"response":"51","name":"rating","trial_type":"image-slider-response","trial_index":152,"time_elapsed":571273,"internal_node_id":"0.0-152.0","participant_id":"A3POD149IG0DIW"},{"rt":1423,"stimulus":"stimuli/39.jpg","button_pressed":"0","name":"emotionType","trial_type":"image-button-response","trial_index":153,"time_elapsed":572699,"internal_node_id":"0.0-153.0","participant_id":"A3POD149IG0DIW"},{"rt":null,"stimulus":"<p style=\"font-size: 48px;\">+</p>","key_press":null,"Name":"fixation","trial_type":"html-keyboard-response","trial_index":154,"time_elapsed":573709,"internal_node_id":"0.0-154.0","participant_id":"A3POD149IG0DIW"},{"rt":null,"stimulus":"stimuli/23.jpg","button_pressed":null,"name":"noRating","trial_type":"image-button-response","trial_index":155,"time_elapsed":578719,"internal_node_id":"0.0-155.0","participant_id":"A3POD149IG0DIW"},{"rt":1411,"stimulus":"stimuli/23.jpg","button_pressed":"0","name":"valence","trial_type":"image-button-response","trial_index":156,"time_elapsed":580132,"internal_node_id":"0.0-156.0","participant_id":"A3POD149IG0DIW"},{"rt":3458,"response":"46","name":"rating","trial_type":"image-slider-response","trial_index":157,"time_elapsed":583593,"internal_node_id":"0.0-157.0","participant_id":"A3POD149IG0DIW"},{"rt":1068,"stimulus":"stimuli/23.jpg","button_pressed":"1","name":"emotionType","trial_type":"image-button-response","trial_index":158,"time_elapsed":584665,"internal_node_id":"0.0-158.0","participant_id":"A3POD149IG0DIW"},{"rt":null,"stimulus":"<p style=\"font-size: 48px;\">+</p>","key_press":null,"Name":"fixation","trial_type":"html-keyboard-response","trial_index":159,"time_elapsed":585171,"internal_node_id":"0.0-159.0","participant_id":"A3POD149IG0DIW"},{"rt":null,"stimulus":"stimuli/59.jpg","button_pressed":null,"name":"noRating","trial_type":"image-button-response","trial_index":160,"time_elapsed":590189,"internal_node_id":"0.0-160.0","participant_id":"A3POD149IG0DIW"},{"rt":1585,"stimulus":"stimuli/59.jpg","button_pressed":"0","name":"valence","trial_type":"image-button-response","trial_index":161,"time_elapsed":591779,"internal_node_id":"0.0-161.0","participant_id":"A3POD149IG0DIW"},{"rt":4396,"response":"50","name":"rating","trial_type":"image-slider-response","trial_index":162,"time_elapsed":596178,"internal_node_id":"0.0-162.0","participant_id":"A3POD149IG0DIW"},{"rt":2154,"stimulus":"stimuli/59.jpg","button_pressed":"0","name":"emotionType","trial_type":"image-button-response","trial_index":163,"time_elapsed":598335,"internal_node_id":"0.0-163.0","participant_id":"A3POD149IG0DIW"},{"rt":4933,"stimulus":"stimuli/ins/Slide8.JPG","button_pressed":"0","trial_type":"image-button-response","trial_index":164,"time_elapsed":603271,"internal_node_id":"0.0-164.0","participant_id":"A3POD149IG0DIW"}]