[{"rt":5053,"responses":"{\"Q0\":\"A3QC57KUVJP5EW\"}","trial_type":"survey-text","trial_index":0,"time_elapsed":5056,"internal_node_id":"0.0-0.0-0.0","participant_id":"A3QC57KUVJP5EW"},{"rt":7270,"stimulus":"stimuli/ins/Slide1.JPG","button_pressed":"0","Name":"instructions","trial_type":"image-button-response","trial_index":1,"time_elapsed":12327,"internal_node_id":"0.0-1.0","participant_id":"A3QC57KUVJP5EW"},{"rt":29238,"stimulus":"stimuli/ins/Slide2.JPG","button_pressed":"0","Name":"instructions","trial_type":"image-button-response","trial_index":2,"time_elapsed":41567,"internal_node_id":"0.0-2.0","participant_id":"A3QC57KUVJP5EW"},{"rt":7207,"stimulus":"stimuli/ins/Slide3.JPG","button_pressed":"0","Name":"instructions","trial_type":"image-button-response","trial_index":3,"time_elapsed":48775,"internal_node_id":"0.0-3.0","participant_id":"A3QC57KUVJP5EW"},{"rt":43727,"stimulus":"stimuli/ins/Slide4.JPG","button_pressed":"0","Name":"instructions","trial_type":"image-button-response","trial_index":4,"time_elapsed":92503,"internal_node_id":"0.0-4.0","participant_id":"A3QC57KUVJP5EW"},{"rt":3543,"stimulus":"stimuli/ins/Slide5.JPG","button_pressed":"0","Name":"instructions","trial_type":"image-button-response","trial_index":5,"time_elapsed":96047,"internal_node_id":"0.0-5.0","participant_id":"A3QC57KUVJP5EW"},{"rt":21687,"stimulus":"stimuli/ins/Slide6.JPG","button_pressed":"0","Name":"instructions","trial_type":"image-button-response","trial_index":6,"time_elapsed":117736,"internal_node_id":"0.0-6.0","participant_id":"A3QC57KUVJP5EW"},{"rt":1221,"stimulus":"stimuli/ins/Slide7.JPG","button_pressed":"0","Name":"instructions","trial_type":"image-button-response","trial_index":7,"time_elapsed":118958,"internal_node_id":"0.0-7.0","participant_id":"A3QC57KUVJP5EW"},{"rt":4527,"responses":"{\"Q0\":\"but\"}","trial_type":"survey-text","trial_index":8,"time_elapsed":123486,"internal_node_id":"0.0-8.0-0.0","participant_id":"A3QC57KUVJP5EW"},{"rt":null,"stimulus":"<p style=\"font-size: 48px;\">+</p>","key_press":null,"Name":"fixation","trial_type":"html-keyboard-response","trial_index":9,"time_elapsed":124989,"internal_node_id":"0.0-9.0","participant_id":"A3QC57KUVJP5EW"},{"rt":null,"stimulus":"stimuli/34.jpg","button_pressed":null,"name":"noRating","trial_type":"image-button-response","trial_index":10,"time_elapsed":129991,"internal_node_id":"0.0-10.0","participant_id":"A3QC57KUVJP5EW"},{"rt":2934,"stimulus":"stimuli/34.jpg","button_pressed":"2","name":"valence","trial_type":"image-button-response","trial_index":11,"time_elapsed":132926,"internal_node_id":"0.0-11.0","participant_id":"A3QC57KUVJP5EW"},{"rt":2935,"response":"7","name":"rating","trial_type":"image-slider-response","trial_index":12,"time_elapsed":135862,"internal_node_id":"0.0-12.0","participant_id":"A3QC57KUVJP5EW"},{"rt":4646,"stimulus":"stimuli/34.jpg","button_pressed":"2","name":"emotionType","trial_type":"image-button-response","trial_index":13,"time_elapsed":140510,"internal_node_id":"0.0-13.0","participant_id":"A3QC57KUVJP5EW"},{"rt":null,"stimulus":"<p style=\"font-size: 48px;\">+</p>","key_press":null,"Name":"fixation","trial_type":"html-keyboard-response","trial_index":14,"time_elapsed":141012,"internal_node_id":"0.0-14.0","participant_id":"A3QC57KUVJP5EW"},{"rt":null,"stimulus":"stimuli/37.jpg","button_pressed":null,"name":"noRating","trial_type":"image-button-response","trial_index":15,"time_elapsed":146013,"internal_node_id":"0.0-15.0","participant_id":"A3QC57KUVJP5EW"},{"rt":1559,"stimulus":"stimuli/37.jpg","button_pressed":"0","name":"valence","trial_type":"image-button-response","trial_index":16,"time_elapsed":147574,"internal_node_id":"0.0-16.0","participant_id":"A3QC57KUVJP5EW"},{"rt":2670,"response":"66","name":"rating","trial_type":"image-slider-response","trial_index":17,"time_elapsed":150246,"internal_node_id":"0.0-17.0","participant_id":"A3QC57KUVJP5EW"},{"rt":3054,"stimulus":"stimuli/37.jpg","button_pressed":"0","name":"emotionType","trial_type":"image-button-response","trial_index":18,"time_elapsed":153302,"internal_node_id":"0.0-18.0","participant_id":"A3QC57KUVJP5EW"},{"rt":null,"stimulus":"<p style=\"font-size: 48px;\">+</p>","key_press":null,"Name":"fixation","trial_type":"html-keyboard-response","trial_index":19,"time_elapsed":154803,"internal_node_id":"0.0-19.0","participant_id":"A3QC57KUVJP5EW"},{"rt":null,"stimulus":"stimuli/16.jpg","button_pressed":null,"name":"noRating","trial_type":"image-button-response","trial_index":20,"time_elapsed":159804,"internal_node_id":"0.0-20.0","participant_id":"A3QC57KUVJP5EW"},{"rt":1624,"stimulus":"stimuli/16.jpg","button_pressed":"0","name":"valence","trial_type":"image-button-response","trial_index":21,"time_elapsed":161430,"internal_node_id":"0.0-21.0","participant_id":"A3QC57KUVJP5EW"},{"rt":2790,"response":"54","name":"rating","trial_type":"image-slider-response","trial_index":22,"time_elapsed":164222,"internal_node_id":"0.0-22.0","participant_id":"A3QC57KUVJP5EW"},{"rt":4447,"stimulus":"stimuli/16.jpg","button_pressed":"1","name":"emotionType","trial_type":"image-button-response","trial_index":23,"time_elapsed":168670,"internal_node_id":"0.0-23.0","participant_id":"A3QC57KUVJP5EW"},{"rt":null,"stimulus":"<p style=\"font-size: 48px;\">+</p>","key_press":null,"Name":"fixation","trial_type":"html-keyboard-response","trial_index":24,"time_elapsed":170171,"internal_node_id":"0.0-24.0","participant_id":"A3QC57KUVJP5EW"},{"rt":null,"stimulus":"stimuli/24.jpg","button_pressed":null,"name":"noRating","trial_type":"image-button-response","trial_index":25,"time_elapsed":175173,"internal_node_id":"0.0-25.0","participant_id":"A3QC57KUVJP5EW"},{"rt":6000,"stimulus":"stimuli/24.jpg","button_pressed":"2","name":"valence","trial_type":"image-button-response","trial_index":26,"time_elapsed":181174,"internal_node_id":"0.0-26.0","participant_id":"A3QC57KUVJP5EW"},{"rt":2895,"response":"17","name":"rating","trial_type":"image-slider-response","trial_index":27,"time_elapsed":184070,"internal_node_id":"0.0-27.0","participant_id":"A3QC57KUVJP5EW"},{"rt":7271,"stimulus":"stimuli/24.jpg","button_pressed":"7","name":"emotionType","trial_type":"image-button-response","trial_index":28,"time_elapsed":191342,"internal_node_id":"0.0-28.0","participant_id":"A3QC57KUVJP5EW"},{"rt":null,"stimulus":"<p style=\"font-size: 48px;\">+</p>","key_press":null,"Name":"fixation","trial_type":"html-keyboard-response","trial_index":29,"time_elapsed":192844,"internal_node_id":"0.0-29.0","participant_id":"A3QC57KUVJP5EW"},{"rt":null,"stimulus":"stimuli/68.jpg","button_pressed":null,"name":"noRating","trial_type":"image-button-response","trial_index":30,"time_elapsed":197845,"internal_node_id":"0.0-30.0","participant_id":"A3QC57KUVJP5EW"},{"rt":1640,"stimulus":"stimuli/68.jpg","button_pressed":"0","name":"valence","trial_type":"image-button-response","trial_index":31,"time_elapsed":199486,"internal_node_id":"0.0-31.0","participant_id":"A3QC57KUVJP5EW"},{"rt":2462,"response":"80","name":"rating","trial_type":"image-slider-response","trial_index":32,"time_elapsed":201950,"internal_node_id":"0.0-32.0","participant_id":"A3QC57KUVJP5EW"},{"rt":2710,"stimulus":"stimuli/68.jpg","button_pressed":"0","name":"emotionType","trial_type":"image-button-response","trial_index":33,"time_elapsed":204662,"internal_node_id":"0.0-33.0","participant_id":"A3QC57KUVJP5EW"},{"rt":3678,"responses":"{\"Q0\":\"rock\"}","trial_type":"survey-text","trial_index":34,"time_elapsed":208343,"internal_node_id":"0.0-34.0-0.0","participant_id":"A3QC57KUVJP5EW"},{"rt":null,"stimulus":"<p style=\"font-size: 48px;\">+</p>","key_press":null,"Name":"fixation","trial_type":"html-keyboard-response","trial_index":35,"time_elapsed":209344,"internal_node_id":"0.0-35.0","participant_id":"A3QC57KUVJP5EW"},{"rt":null,"stimulus":"stimuli/45.jpg","button_pressed":null,"name":"noRating","trial_type":"image-button-response","trial_index":36,"time_elapsed":214345,"internal_node_id":"0.0-36.0","participant_id":"A3QC57KUVJP5EW"},{"rt":3075,"stimulus":"stimuli/45.jpg","button_pressed":"0","name":"valence","trial_type":"image-button-response","trial_index":37,"time_elapsed":217422,"internal_node_id":"0.0-37.0","participant_id":"A3QC57KUVJP5EW"},{"rt":1822,"response":"32","name":"rating","trial_type":"image-slider-response","trial_index":38,"time_elapsed":219246,"internal_node_id":"0.0-38.0","participant_id":"A3QC57KUVJP5EW"},{"rt":3734,"stimulus":"stimuli/45.jpg","button_pressed":"2","name":"emotionType","trial_type":"image-button-response","trial_index":39,"time_elapsed":222982,"internal_node_id":"0.0-39.0","participant_id":"A3QC57KUVJP5EW"},{"rt":null,"stimulus":"<p style=\"font-size: 48px;\">+</p>","key_press":null,"Name":"fixation","trial_type":"html-keyboard-response","trial_index":40,"time_elapsed":223984,"internal_node_id":"0.0-40.0","participant_id":"A3QC57KUVJP5EW"},{"rt":null,"stimulus":"stimuli/49.jpg","button_pressed":null,"name":"noRating","trial_type":"image-button-response","trial_index":41,"time_elapsed":228985,"internal_node_id":"0.0-41.0","participant_id":"A3QC57KUVJP5EW"},{"rt":6092,"stimulus":"stimuli/49.jpg","button_pressed":"1","name":"valence","trial_type":"image-button-response","trial_index":42,"time_elapsed":235078,"internal_node_id":"0.0-42.0","participant_id":"A3QC57KUVJP5EW"},{"rt":3038,"response":"16","name":"rating","trial_type":"image-slider-response","trial_index":43,"time_elapsed":238117,"internal_node_id":"0.0-43.0","participant_id":"A3QC57KUVJP5EW"},{"rt":3287,"stimulus":"stimuli/49.jpg","button_pressed":"3","name":"emotionType","trial_type":"image-button-response","trial_index":44,"time_elapsed":241406,"internal_node_id":"0.0-44.0","participant_id":"A3QC57KUVJP5EW"},{"rt":null,"stimulus":"<p style=\"font-size: 48px;\">+</p>","key_press":null,"Name":"fixation","trial_type":"html-keyboard-response","trial_index":45,"time_elapsed":242407,"internal_node_id":"0.0-45.0","participant_id":"A3QC57KUVJP5EW"},{"rt":null,"stimulus":"stimuli/42.jpg","button_pressed":null,"name":"noRating","trial_type":"image-button-response","trial_index":46,"time_elapsed":247408,"internal_node_id":"0.0-46.0","participant_id":"A3QC57KUVJP5EW"},{"rt":1293,"stimulus":"stimuli/42.jpg","button_pressed":"0","name":"valence","trial_type":"image-button-response","trial_index":47,"time_elapsed":248701,"internal_node_id":"0.0-47.0","participant_id":"A3QC57KUVJP5EW"},{"rt":1695,"response":"83","name":"rating","trial_type":"image-slider-response","trial_index":48,"time_elapsed":250397,"internal_node_id":"0.0-48.0","participant_id":"A3QC57KUVJP5EW"},{"rt":3287,"stimulus":"stimuli/42.jpg","button_pressed":"0","name":"emotionType","trial_type":"image-button-response","trial_index":49,"time_elapsed":253685,"internal_node_id":"0.0-49.0","participant_id":"A3QC57KUVJP5EW"},{"rt":null,"stimulus":"<p style=\"font-size: 48px;\">+</p>","key_press":null,"Name":"fixation","trial_type":"html-keyboard-response","trial_index":50,"time_elapsed":254187,"internal_node_id":"0.0-50.0","participant_id":"A3QC57KUVJP5EW"},{"rt":null,"stimulus":"stimuli/9.jpg","button_pressed":null,"name":"noRating","trial_type":"image-button-response","trial_index":51,"time_elapsed":259188,"internal_node_id":"0.0-51.0","participant_id":"A3QC57KUVJP5EW"},{"rt":969,"stimulus":"stimuli/9.jpg","button_pressed":"0","name":"valence","trial_type":"image-button-response","trial_index":52,"time_elapsed":260157,"internal_node_id":"0.0-52.0","participant_id":"A3QC57KUVJP5EW"},{"rt":2927,"response":"82","name":"rating","trial_type":"image-slider-response","trial_index":53,"time_elapsed":263085,"internal_node_id":"0.0-53.0","participant_id":"A3QC57KUVJP5EW"},{"rt":5015,"stimulus":"stimuli/9.jpg","button_pressed":"1","name":"emotionType","trial_type":"image-button-response","trial_index":54,"time_elapsed":268102,"internal_node_id":"0.0-54.0","participant_id":"A3QC57KUVJP5EW"},{"rt":null,"stimulus":"<p style=\"font-size: 48px;\">+</p>","key_press":null,"Name":"fixation","trial_type":"html-keyboard-response","trial_index":55,"time_elapsed":268603,"internal_node_id":"0.0-55.0","participant_id":"A3QC57KUVJP5EW"},{"rt":null,"stimulus":"stimuli/31.jpg","button_pressed":null,"name":"noRating","trial_type":"image-button-response","trial_index":56,"time_elapsed":273604,"internal_node_id":"0.0-56.0","participant_id":"A3QC57KUVJP5EW"},{"rt":2167,"stimulus":"stimuli/31.jpg","button_pressed":"1","name":"valence","trial_type":"image-button-response","trial_index":57,"time_elapsed":275773,"internal_node_id":"0.0-57.0","participant_id":"A3QC57KUVJP5EW"},{"rt":3734,"response":"18","name":"rating","trial_type":"image-slider-response","trial_index":58,"time_elapsed":279509,"internal_node_id":"0.0-58.0","participant_id":"A3QC57KUVJP5EW"},{"rt":7471,"stimulus":"stimuli/31.jpg","button_pressed":"3","name":"emotionType","trial_type":"image-button-response","trial_index":59,"time_elapsed":286981,"internal_node_id":"0.0-59.0","participant_id":"A3QC57KUVJP5EW"},{"rt":4270,"responses":"{\"Q0\":\"sky\"}","trial_type":"survey-text","trial_index":60,"time_elapsed":291253,"internal_node_id":"0.0-60.0-0.0","participant_id":"A3QC57KUVJP5EW"},{"rt":null,"stimulus":"<p style=\"font-size: 48px;\">+</p>","key_press":null,"Name":"fixation","trial_type":"html-keyboard-response","trial_index":61,"time_elapsed":292254,"internal_node_id":"0.0-61.0","participant_id":"A3QC57KUVJP5EW"},{"rt":null,"stimulus":"stimuli/61.jpg","button_pressed":null,"name":"noRating","trial_type":"image-button-response","trial_index":62,"time_elapsed":297256,"internal_node_id":"0.0-62.0","participant_id":"A3QC57KUVJP5EW"},{"rt":9277,"stimulus":"stimuli/61.jpg","button_pressed":"0","name":"valence","trial_type":"image-button-response","trial_index":63,"time_elapsed":306533,"internal_node_id":"0.0-63.0","participant_id":"A3QC57KUVJP5EW"},{"rt":4895,"response":"60","name":"rating","trial_type":"image-slider-response","trial_index":64,"time_elapsed":311429,"internal_node_id":"0.0-64.0","participant_id":"A3QC57KUVJP5EW"},{"rt":1319,"stimulus":"stimuli/61.jpg","button_pressed":"0","name":"emotionType","trial_type":"image-button-response","trial_index":65,"time_elapsed":312749,"internal_node_id":"0.0-65.0","participant_id":"A3QC57KUVJP5EW"},{"rt":null,"stimulus":"<p style=\"font-size: 48px;\">+</p>","key_press":null,"Name":"fixation","trial_type":"html-keyboard-response","trial_index":66,"time_elapsed":314251,"internal_node_id":"0.0-66.0","participant_id":"A3QC57KUVJP5EW"},{"rt":null,"stimulus":"stimuli/69.jpg","button_pressed":null,"name":"noRating","trial_type":"image-button-response","trial_index":67,"time_elapsed":319252,"internal_node_id":"0.0-67.0","participant_id":"A3QC57KUVJP5EW"},{"rt":3559,"stimulus":"stimuli/69.jpg","button_pressed":"1","name":"valence","trial_type":"image-button-response","trial_index":68,"time_elapsed":322813,"internal_node_id":"0.0-68.0","participant_id":"A3QC57KUVJP5EW"},{"rt":2302,"response":"32","name":"rating","trial_type":"image-slider-response","trial_index":69,"time_elapsed":325117,"internal_node_id":"0.0-69.0","participant_id":"A3QC57KUVJP5EW"},{"rt":1214,"stimulus":"stimuli/69.jpg","button_pressed":"2","name":"emotionType","trial_type":"image-button-response","trial_index":70,"time_elapsed":326333,"internal_node_id":"0.0-70.0","participant_id":"A3QC57KUVJP5EW"},{"rt":null,"stimulus":"<p style=\"font-size: 48px;\">+</p>","key_press":null,"Name":"fixation","trial_type":"html-keyboard-response","trial_index":71,"time_elapsed":327834,"internal_node_id":"0.0-71.0","participant_id":"A3QC57KUVJP5EW"},{"rt":null,"stimulus":"stimuli/57.jpg","button_pressed":null,"name":"noRating","trial_type":"image-button-response","trial_index":72,"time_elapsed":332835,"internal_node_id":"0.0-72.0","participant_id":"A3QC57KUVJP5EW"},{"rt":3896,"stimulus":"stimuli/57.jpg","button_pressed":"0","name":"valence","trial_type":"image-button-response","trial_index":73,"time_elapsed":336733,"internal_node_id":"0.0-73.0","participant_id":"A3QC57KUVJP5EW"},{"rt":2214,"response":"52","name":"rating","trial_type":"image-slider-response","trial_index":74,"time_elapsed":338949,"internal_node_id":"0.0-74.0","participant_id":"A3QC57KUVJP5EW"},{"rt":1470,"stimulus":"stimuli/57.jpg","button_pressed":"1","name":"emotionType","trial_type":"image-button-response","trial_index":75,"time_elapsed":340421,"internal_node_id":"0.0-75.0","participant_id":"A3QC57KUVJP5EW"},{"rt":null,"stimulus":"<p style=\"font-size: 48px;\">+</p>","key_press":null,"Name":"fixation","trial_type":"html-keyboard-response","trial_index":76,"time_elapsed":341922,"internal_node_id":"0.0-76.0","participant_id":"A3QC57KUVJP5EW"},{"rt":null,"stimulus":"stimuli/25.jpg","button_pressed":null,"name":"noRating","trial_type":"image-button-response","trial_index":77,"time_elapsed":346923,"internal_node_id":"0.0-77.0","participant_id":"A3QC57KUVJP5EW"},{"rt":1464,"stimulus":"stimuli/25.jpg","button_pressed":"0","name":"valence","trial_type":"image-button-response","trial_index":78,"time_elapsed":348389,"internal_node_id":"0.0-78.0","participant_id":"A3QC57KUVJP5EW"},{"rt":2494,"response":"33","name":"rating","trial_type":"image-slider-response","trial_index":79,"time_elapsed":350885,"internal_node_id":"0.0-79.0","participant_id":"A3QC57KUVJP5EW"},{"rt":2311,"stimulus":"stimuli/25.jpg","button_pressed":"2","name":"emotionType","trial_type":"image-button-response","trial_index":80,"time_elapsed":353198,"internal_node_id":"0.0-80.0","participant_id":"A3QC57KUVJP5EW"},{"rt":null,"stimulus":"<p style=\"font-size: 48px;\">+</p>","key_press":null,"Name":"fixation","trial_type":"html-keyboard-response","trial_index":81,"time_elapsed":354699,"internal_node_id":"0.0-81.0","participant_id":"A3QC57KUVJP5EW"},{"rt":null,"stimulus":"stimuli/26.jpg","button_pressed":null,"name":"noRating","trial_type":"image-button-response","trial_index":82,"time_elapsed":359700,"internal_node_id":"0.0-82.0","participant_id":"A3QC57KUVJP5EW"},{"rt":1560,"stimulus":"stimuli/26.jpg","button_pressed":"0","name":"valence","trial_type":"image-button-response","trial_index":83,"time_elapsed":361261,"internal_node_id":"0.0-83.0","participant_id":"A3QC57KUVJP5EW"},{"rt":2430,"response":"76","name":"rating","trial_type":"image-slider-response","trial_index":84,"time_elapsed":363693,"internal_node_id":"0.0-84.0","participant_id":"A3QC57KUVJP5EW"},{"rt":1126,"stimulus":"stimuli/26.jpg","button_pressed":"0","name":"emotionType","trial_type":"image-button-response","trial_index":85,"time_elapsed":364821,"internal_node_id":"0.0-85.0","participant_id":"A3QC57KUVJP5EW"},{"rt":3103,"responses":"{\"Q0\":\"our\"}","trial_type":"survey-text","trial_index":86,"time_elapsed":367925,"internal_node_id":"0.0-86.0-0.0","participant_id":"A3QC57KUVJP5EW"},{"rt":null,"stimulus":"<p style=\"font-size: 48px;\">+</p>","key_press":null,"Name":"fixation","trial_type":"html-keyboard-response","trial_index":87,"time_elapsed":368926,"internal_node_id":"0.0-87.0","participant_id":"A3QC57KUVJP5EW"},{"rt":null,"stimulus":"stimuli/63.jpg","button_pressed":null,"name":"noRating","trial_type":"image-button-response","trial_index":88,"time_elapsed":373927,"internal_node_id":"0.0-88.0","participant_id":"A3QC57KUVJP5EW"},{"rt":1309,"stimulus":"stimuli/63.jpg","button_pressed":"0","name":"valence","trial_type":"image-button-response","trial_index":89,"time_elapsed":375237,"internal_node_id":"0.0-89.0","participant_id":"A3QC57KUVJP5EW"},{"rt":3055,"response":"86","name":"rating","trial_type":"image-slider-response","trial_index":90,"time_elapsed":378293,"internal_node_id":"0.0-90.0","participant_id":"A3QC57KUVJP5EW"},{"rt":2887,"stimulus":"stimuli/63.jpg","button_pressed":"1","name":"emotionType","trial_type":"image-button-response","trial_index":91,"time_elapsed":381181,"internal_node_id":"0.0-91.0","participant_id":"A3QC57KUVJP5EW"},{"rt":null,"stimulus":"<p style=\"font-size: 48px;\">+</p>","key_press":null,"Name":"fixation","trial_type":"html-keyboard-response","trial_index":92,"time_elapsed":382182,"internal_node_id":"0.0-92.0","participant_id":"A3QC57KUVJP5EW"},{"rt":null,"stimulus":"stimuli/5.jpg","button_pressed":null,"name":"noRating","trial_type":"image-button-response","trial_index":93,"time_elapsed":387183,"internal_node_id":"0.0-93.0","participant_id":"A3QC57KUVJP5EW"},{"rt":1044,"stimulus":"stimuli/5.jpg","button_pressed":"1","name":"valence","trial_type":"image-button-response","trial_index":94,"time_elapsed":388228,"internal_node_id":"0.0-94.0","participant_id":"A3QC57KUVJP5EW"},{"rt":2895,"response":"40","name":"rating","trial_type":"image-slider-response","trial_index":95,"time_elapsed":391125,"internal_node_id":"0.0-95.0","participant_id":"A3QC57KUVJP5EW"},{"rt":4831,"stimulus":"stimuli/5.jpg","button_pressed":"4","name":"emotionType","trial_type":"image-button-response","trial_index":96,"time_elapsed":395957,"internal_node_id":"0.0-96.0","participant_id":"A3QC57KUVJP5EW"},{"rt":null,"stimulus":"<p style=\"font-size: 48px;\">+</p>","key_press":null,"Name":"fixation","trial_type":"html-keyboard-response","trial_index":97,"time_elapsed":396958,"internal_node_id":"0.0-97.0","participant_id":"A3QC57KUVJP5EW"},{"rt":null,"stimulus":"stimuli/7.jpg","button_pressed":null,"name":"noRating","trial_type":"image-button-response","trial_index":98,"time_elapsed":401959,"internal_node_id":"0.0-98.0","participant_id":"A3QC57KUVJP5EW"},{"rt":1884,"stimulus":"stimuli/7.jpg","button_pressed":"0","name":"valence","trial_type":"image-button-response","trial_index":99,"time_elapsed":403844,"internal_node_id":"0.0-99.0","participant_id":"A3QC57KUVJP5EW"},{"rt":3327,"response":"49","name":"rating","trial_type":"image-slider-response","trial_index":100,"time_elapsed":407172,"internal_node_id":"0.0-100.0","participant_id":"A3QC57KUVJP5EW"},{"rt":2831,"stimulus":"stimuli/7.jpg","button_pressed":"2","name":"emotionType","trial_type":"image-button-response","trial_index":101,"time_elapsed":410004,"internal_node_id":"0.0-101.0","participant_id":"A3QC57KUVJP5EW"},{"rt":null,"stimulus":"<p style=\"font-size: 48px;\">+</p>","key_press":null,"Name":"fixation","trial_type":"html-keyboard-response","trial_index":102,"time_elapsed":411505,"internal_node_id":"0.0-102.0","participant_id":"A3QC57KUVJP5EW"},{"rt":null,"stimulus":"stimuli/40.jpg","button_pressed":null,"name":"noRating","trial_type":"image-button-response","trial_index":103,"time_elapsed":416507,"internal_node_id":"0.0-103.0","participant_id":"A3QC57KUVJP5EW"},{"rt":2529,"stimulus":"stimuli/40.jpg","button_pressed":"2","name":"valence","trial_type":"image-button-response","trial_index":104,"time_elapsed":419036,"internal_node_id":"0.0-104.0","participant_id":"A3QC57KUVJP5EW"},{"rt":3055,"response":"20","name":"rating","trial_type":"image-slider-response","trial_index":105,"time_elapsed":422092,"internal_node_id":"0.0-105.0","participant_id":"A3QC57KUVJP5EW"},{"rt":3575,"stimulus":"stimuli/40.jpg","button_pressed":"2","name":"emotionType","trial_type":"image-button-response","trial_index":106,"time_elapsed":425668,"internal_node_id":"0.0-106.0","participant_id":"A3QC57KUVJP5EW"},{"rt":null,"stimulus":"<p style=\"font-size: 48px;\">+</p>","key_press":null,"Name":"fixation","trial_type":"html-keyboard-response","trial_index":107,"time_elapsed":426169,"internal_node_id":"0.0-107.0","participant_id":"A3QC57KUVJP5EW"},{"rt":null,"stimulus":"stimuli/62.jpg","button_pressed":null,"name":"noRating","trial_type":"image-button-response","trial_index":108,"time_elapsed":431171,"internal_node_id":"0.0-108.0","participant_id":"A3QC57KUVJP5EW"},{"rt":4904,"stimulus":"stimuli/62.jpg","button_pressed":"2","name":"valence","trial_type":"image-button-response","trial_index":109,"time_elapsed":436076,"internal_node_id":"0.0-109.0","participant_id":"A3QC57KUVJP5EW"},{"rt":2182,"response":"20","name":"rating","trial_type":"image-slider-response","trial_index":110,"time_elapsed":438260,"internal_node_id":"0.0-110.0","participant_id":"A3QC57KUVJP5EW"},{"rt":910,"stimulus":"stimuli/62.jpg","button_pressed":"2","name":"emotionType","trial_type":"image-button-response","trial_index":111,"time_elapsed":439172,"internal_node_id":"0.0-111.0","participant_id":"A3QC57KUVJP5EW"},{"rt":3438,"responses":"{\"Q0\":\"course\"}","trial_type":"survey-text","trial_index":112,"time_elapsed":442612,"internal_node_id":"0.0-112.0-0.0","participant_id":"A3QC57KUVJP5EW"},{"rt":null,"stimulus":"<p style=\"font-size: 48px;\">+</p>","key_press":null,"Name":"fixation","trial_type":"html-keyboard-response","trial_index":113,"time_elapsed":444114,"internal_node_id":"0.0-113.0","participant_id":"A3QC57KUVJP5EW"},{"rt":null,"stimulus":"stimuli/41.jpg","button_pressed":null,"name":"noRating","trial_type":"image-button-response","trial_index":114,"time_elapsed":449115,"internal_node_id":"0.0-114.0","participant_id":"A3QC57KUVJP5EW"},{"rt":5488,"stimulus":"stimuli/41.jpg","button_pressed":"2","name":"valence","trial_type":"image-button-response","trial_index":115,"time_elapsed":454604,"internal_node_id":"0.0-115.0","participant_id":"A3QC57KUVJP5EW"},{"rt":2662,"response":"33","name":"rating","trial_type":"image-slider-response","trial_index":116,"time_elapsed":457268,"internal_node_id":"0.0-116.0","participant_id":"A3QC57KUVJP5EW"},{"rt":4462,"stimulus":"stimuli/41.jpg","button_pressed":"3","name":"emotionType","trial_type":"image-button-response","trial_index":117,"time_elapsed":461732,"internal_node_id":"0.0-117.0","participant_id":"A3QC57KUVJP5EW"},{"rt":null,"stimulus":"<p style=\"font-size: 48px;\">+</p>","key_press":null,"Name":"fixation","trial_type":"html-keyboard-response","trial_index":118,"time_elapsed":462733,"internal_node_id":"0.0-118.0","participant_id":"A3QC57KUVJP5EW"},{"rt":null,"stimulus":"stimuli/15.jpg","button_pressed":null,"name":"noRating","trial_type":"image-button-response","trial_index":119,"time_elapsed":467734,"internal_node_id":"0.0-119.0","participant_id":"A3QC57KUVJP5EW"},{"rt":3180,"stimulus":"stimuli/15.jpg","button_pressed":"0","name":"valence","trial_type":"image-button-response","trial_index":120,"time_elapsed":470916,"internal_node_id":"0.0-120.0","participant_id":"A3QC57KUVJP5EW"},{"rt":2142,"response":"56","name":"rating","trial_type":"image-slider-response","trial_index":121,"time_elapsed":473060,"internal_node_id":"0.0-121.0","participant_id":"A3QC57KUVJP5EW"},{"rt":1102,"stimulus":"stimuli/15.jpg","button_pressed":"0","name":"emotionType","trial_type":"image-button-response","trial_index":122,"time_elapsed":474164,"internal_node_id":"0.0-122.0","participant_id":"A3QC57KUVJP5EW"},{"rt":null,"stimulus":"<p style=\"font-size: 48px;\">+</p>","key_press":null,"Name":"fixation","trial_type":"html-keyboard-response","trial_index":123,"time_elapsed":475165,"internal_node_id":"0.0-123.0","participant_id":"A3QC57KUVJP5EW"},{"rt":null,"stimulus":"stimuli/12.jpg","button_pressed":null,"name":"noRating","trial_type":"image-button-response","trial_index":124,"time_elapsed":480166,"internal_node_id":"0.0-124.0","participant_id":"A3QC57KUVJP5EW"},{"rt":5852,"stimulus":"stimuli/12.jpg","button_pressed":"1","name":"valence","trial_type":"image-button-response","trial_index":125,"time_elapsed":486020,"internal_node_id":"0.0-125.0","participant_id":"A3QC57KUVJP5EW"},{"rt":2710,"response":"53","name":"rating","trial_type":"image-slider-response","trial_index":126,"time_elapsed":488732,"internal_node_id":"0.0-126.0","participant_id":"A3QC57KUVJP5EW"},{"rt":3126,"stimulus":"stimuli/12.jpg","button_pressed":"4","name":"emotionType","trial_type":"image-button-response","trial_index":127,"time_elapsed":491860,"internal_node_id":"0.0-127.0","participant_id":"A3QC57KUVJP5EW"},{"rt":null,"stimulus":"<p style=\"font-size: 48px;\">+</p>","key_press":null,"Name":"fixation","trial_type":"html-keyboard-response","trial_index":128,"time_elapsed":492862,"internal_node_id":"0.0-128.0","participant_id":"A3QC57KUVJP5EW"},{"rt":null,"stimulus":"stimuli/58.jpg","button_pressed":null,"name":"noRating","trial_type":"image-button-response","trial_index":129,"time_elapsed":497863,"internal_node_id":"0.0-129.0","participant_id":"A3QC57KUVJP5EW"},{"rt":1235,"stimulus":"stimuli/58.jpg","button_pressed":"0","name":"valence","trial_type":"image-button-response","trial_index":130,"time_elapsed":499100,"internal_node_id":"0.0-130.0","participant_id":"A3QC57KUVJP5EW"},{"rt":1950,"response":"40","name":"rating","trial_type":"image-slider-response","trial_index":131,"time_elapsed":501052,"internal_node_id":"0.0-131.0","participant_id":"A3QC57KUVJP5EW"},{"rt":878,"stimulus":"stimuli/58.jpg","button_pressed":"1","name":"emotionType","trial_type":"image-button-response","trial_index":132,"time_elapsed":501932,"internal_node_id":"0.0-132.0","participant_id":"A3QC57KUVJP5EW"},{"rt":null,"stimulus":"<p style=\"font-size: 48px;\">+</p>","key_press":null,"Name":"fixation","trial_type":"html-keyboard-response","trial_index":133,"time_elapsed":502933,"internal_node_id":"0.0-133.0","participant_id":"A3QC57KUVJP5EW"},{"rt":null,"stimulus":"stimuli/3.jpg","button_pressed":null,"name":"noRating","trial_type":"image-button-response","trial_index":134,"time_elapsed":507934,"internal_node_id":"0.0-134.0","participant_id":"A3QC57KUVJP5EW"},{"rt":852,"stimulus":"stimuli/3.jpg","button_pressed":"0","name":"valence","trial_type":"image-button-response","trial_index":135,"time_elapsed":508788,"internal_node_id":"0.0-135.0","participant_id":"A3QC57KUVJP5EW"},{"rt":5206,"response":"37","name":"rating","trial_type":"image-slider-response","trial_index":136,"time_elapsed":513996,"internal_node_id":"0.0-136.0","participant_id":"A3QC57KUVJP5EW"},{"rt":767,"stimulus":"stimuli/3.jpg","button_pressed":"0","name":"emotionType","trial_type":"image-button-response","trial_index":137,"time_elapsed":514764,"internal_node_id":"0.0-137.0","participant_id":"A3QC57KUVJP5EW"},{"rt":3215,"responses":"{\"Q0\":\"we\"}","trial_type":"survey-text","trial_index":138,"time_elapsed":517980,"internal_node_id":"0.0-138.0-0.0","participant_id":"A3QC57KUVJP5EW"},{"rt":null,"stimulus":"<p style=\"font-size: 48px;\">+</p>","key_press":null,"Name":"fixation","trial_type":"html-keyboard-response","trial_index":139,"time_elapsed":518985,"internal_node_id":"0.0-139.0","participant_id":"A3QC57KUVJP5EW"},{"rt":null,"stimulus":"stimuli/27.jpg","button_pressed":null,"name":"noRating","trial_type":"image-button-response","trial_index":140,"time_elapsed":523986,"internal_node_id":"0.0-140.0","participant_id":"A3QC57KUVJP5EW"},{"rt":1264,"stimulus":"stimuli/27.jpg","button_pressed":"0","name":"valence","trial_type":"image-button-response","trial_index":141,"time_elapsed":525252,"internal_node_id":"0.0-141.0","participant_id":"A3QC57KUVJP5EW"},{"rt":2398,"response":"32","name":"rating","trial_type":"image-slider-response","trial_index":142,"time_elapsed":527652,"internal_node_id":"0.0-142.0","participant_id":"A3QC57KUVJP5EW"},{"rt":3895,"stimulus":"stimuli/27.jpg","button_pressed":"0","name":"emotionType","trial_type":"image-button-response","trial_index":143,"time_elapsed":531548,"internal_node_id":"0.0-143.0","participant_id":"A3QC57KUVJP5EW"},{"rt":null,"stimulus":"<p style=\"font-size: 48px;\">+</p>","key_press":null,"Name":"fixation","trial_type":"html-keyboard-response","trial_index":144,"time_elapsed":533049,"internal_node_id":"0.0-144.0","participant_id":"A3QC57KUVJP5EW"},{"rt":null,"stimulus":"stimuli/51.jpg","button_pressed":null,"name":"noRating","trial_type":"image-button-response","trial_index":145,"time_elapsed":538051,"internal_node_id":"0.0-145.0","participant_id":"A3QC57KUVJP5EW"},{"rt":1672,"stimulus":"stimuli/51.jpg","button_pressed":"2","name":"valence","trial_type":"image-button-response","trial_index":146,"time_elapsed":539724,"internal_node_id":"0.0-146.0","participant_id":"A3QC57KUVJP5EW"},{"rt":2503,"response":"19","name":"rating","trial_type":"image-slider-response","trial_index":147,"time_elapsed":542227,"internal_node_id":"0.0-147.0","participant_id":"A3QC57KUVJP5EW"},{"rt":1143,"stimulus":"stimuli/51.jpg","button_pressed":"2","name":"emotionType","trial_type":"image-button-response","trial_index":148,"time_elapsed":543372,"internal_node_id":"0.0-148.0","participant_id":"A3QC57KUVJP5EW"},{"rt":null,"stimulus":"<p style=\"font-size: 48px;\">+</p>","key_press":null,"Name":"fixation","trial_type":"html-keyboard-response","trial_index":149,"time_elapsed":544872,"internal_node_id":"0.0-149.0","participant_id":"A3QC57KUVJP5EW"},{"rt":null,"stimulus":"stimuli/11.jpg","button_pressed":null,"name":"noRating","trial_type":"image-button-response","trial_index":150,"time_elapsed":549873,"internal_node_id":"0.0-150.0","participant_id":"A3QC57KUVJP5EW"},{"rt":4065,"stimulus":"stimuli/11.jpg","button_pressed":"2","name":"valence","trial_type":"image-button-response","trial_index":151,"time_elapsed":553939,"internal_node_id":"0.0-151.0","participant_id":"A3QC57KUVJP5EW"},{"rt":2639,"response":"13","name":"rating","trial_type":"image-slider-response","trial_index":152,"time_elapsed":556579,"internal_node_id":"0.0-152.0","participant_id":"A3QC57KUVJP5EW"},{"rt":1823,"stimulus":"stimuli/11.jpg","button_pressed":"2","name":"emotionType","trial_type":"image-button-response","trial_index":153,"time_elapsed":558403,"internal_node_id":"0.0-153.0","participant_id":"A3QC57KUVJP5EW"},{"rt":null,"stimulus":"<p style=\"font-size: 48px;\">+</p>","key_press":null,"Name":"fixation","trial_type":"html-keyboard-response","trial_index":154,"time_elapsed":559905,"internal_node_id":"0.0-154.0","participant_id":"A3QC57KUVJP5EW"},{"rt":null,"stimulus":"stimuli/53.jpg","button_pressed":null,"name":"noRating","trial_type":"image-button-response","trial_index":155,"time_elapsed":564906,"internal_node_id":"0.0-155.0","participant_id":"A3QC57KUVJP5EW"},{"rt":1937,"stimulus":"stimuli/53.jpg","button_pressed":"0","name":"valence","trial_type":"image-button-response","trial_index":156,"time_elapsed":566843,"internal_node_id":"0.0-156.0","participant_id":"A3QC57KUVJP5EW"},{"rt":2183,"response":"70","name":"rating","trial_type":"image-slider-response","trial_index":157,"time_elapsed":569027,"internal_node_id":"0.0-157.0","participant_id":"A3QC57KUVJP5EW"},{"rt":895,"stimulus":"stimuli/53.jpg","button_pressed":"1","name":"emotionType","trial_type":"image-button-response","trial_index":158,"time_elapsed":569923,"internal_node_id":"0.0-158.0","participant_id":"A3QC57KUVJP5EW"},{"rt":null,"stimulus":"<p style=\"font-size: 48px;\">+</p>","key_press":null,"Name":"fixation","trial_type":"html-keyboard-response","trial_index":159,"time_elapsed":571425,"internal_node_id":"0.0-159.0","participant_id":"A3QC57KUVJP5EW"},{"rt":null,"stimulus":"stimuli/70.jpg","button_pressed":null,"name":"noRating","trial_type":"image-button-response","trial_index":160,"time_elapsed":576426,"internal_node_id":"0.0-160.0","participant_id":"A3QC57KUVJP5EW"},{"rt":1168,"stimulus":"stimuli/70.jpg","button_pressed":"0","name":"valence","trial_type":"image-button-response","trial_index":161,"time_elapsed":577595,"internal_node_id":"0.0-161.0","participant_id":"A3QC57KUVJP5EW"},{"rt":2550,"response":"68","name":"rating","trial_type":"image-slider-response","trial_index":162,"time_elapsed":580147,"internal_node_id":"0.0-162.0","participant_id":"A3QC57KUVJP5EW"},{"rt":798,"stimulus":"stimuli/70.jpg","button_pressed":"1","name":"emotionType","trial_type":"image-button-response","trial_index":163,"time_elapsed":580947,"internal_node_id":"0.0-163.0","participant_id":"A3QC57KUVJP5EW"},{"rt":4054,"stimulus":"stimuli/ins/Slide8.JPG","button_pressed":"0","trial_type":"image-button-response","trial_index":164,"time_elapsed":585003,"internal_node_id":"0.0-164.0","participant_id":"A3QC57KUVJP5EW"}]