[{"rt":5700,"responses":"{\"Q0\":\"A610SH5RY1NG1\"}","trial_type":"survey-text","trial_index":0,"time_elapsed":5706,"internal_node_id":"0.0-0.0-0.0","participant_id":"A610SH5RY1NG1"},{"rt":3651,"stimulus":"stimuli/ins/Slide1.JPG","button_pressed":"0","Name":"instructions","trial_type":"image-button-response","trial_index":1,"time_elapsed":9368,"internal_node_id":"0.0-1.0","participant_id":"A610SH5RY1NG1"},{"rt":9886,"stimulus":"stimuli/ins/Slide2.JPG","button_pressed":"0","Name":"instructions","trial_type":"image-button-response","trial_index":2,"time_elapsed":19258,"internal_node_id":"0.0-2.0","participant_id":"A610SH5RY1NG1"},{"rt":6385,"stimulus":"stimuli/ins/Slide3.JPG","button_pressed":"0","Name":"instructions","trial_type":"image-button-response","trial_index":3,"time_elapsed":25647,"internal_node_id":"0.0-3.0","participant_id":"A610SH5RY1NG1"},{"rt":2544,"stimulus":"stimuli/ins/Slide4.JPG","button_pressed":"0","Name":"instructions","trial_type":"image-button-response","trial_index":4,"time_elapsed":28194,"internal_node_id":"0.0-4.0","participant_id":"A610SH5RY1NG1"},{"rt":1770,"stimulus":"stimuli/ins/Slide5.JPG","button_pressed":"0","Name":"instructions","trial_type":"image-button-response","trial_index":5,"time_elapsed":29967,"internal_node_id":"0.0-5.0","participant_id":"A610SH5RY1NG1"},{"rt":1425,"stimulus":"stimuli/ins/Slide6.JPG","button_pressed":"0","Name":"instructions","trial_type":"image-button-response","trial_index":6,"time_elapsed":31394,"internal_node_id":"0.0-6.0","participant_id":"A610SH5RY1NG1"},{"rt":105202,"stimulus":"stimuli/ins/Slide7.JPG","button_pressed":"0","Name":"instructions","trial_type":"image-button-response","trial_index":7,"time_elapsed":136598,"internal_node_id":"0.0-7.0","participant_id":"A610SH5RY1NG1"},{"rt":3231,"responses":"{\"Q0\":\"but\"}","trial_type":"survey-text","trial_index":8,"time_elapsed":139832,"internal_node_id":"0.0-8.0-0.0","participant_id":"A610SH5RY1NG1"},{"rt":null,"stimulus":"<p style=\"font-size: 48px;\">+</p>","key_press":null,"Name":"fixation","trial_type":"html-keyboard-response","trial_index":9,"time_elapsed":140834,"internal_node_id":"0.0-9.0","participant_id":"A610SH5RY1NG1"},{"rt":null,"stimulus":"stimuli/27.jpg","button_pressed":null,"name":"noRating","trial_type":"image-button-response","trial_index":10,"time_elapsed":145839,"internal_node_id":"0.0-10.0","participant_id":"A610SH5RY1NG1"},{"rt":1399,"stimulus":"stimuli/27.jpg","button_pressed":"0","name":"valence","trial_type":"image-button-response","trial_index":11,"time_elapsed":147240,"internal_node_id":"0.0-11.0","participant_id":"A610SH5RY1NG1"},{"rt":2191,"response":"68","name":"rating","trial_type":"image-slider-response","trial_index":12,"time_elapsed":149434,"internal_node_id":"0.0-12.0","participant_id":"A610SH5RY1NG1"},{"rt":2057,"stimulus":"stimuli/27.jpg","button_pressed":"0","name":"emotionType","trial_type":"image-button-response","trial_index":13,"time_elapsed":151494,"internal_node_id":"0.0-13.0","participant_id":"A610SH5RY1NG1"},{"rt":null,"stimulus":"<p style=\"font-size: 48px;\">+</p>","key_press":null,"Name":"fixation","trial_type":"html-keyboard-response","trial_index":14,"time_elapsed":152496,"internal_node_id":"0.0-14.0","participant_id":"A610SH5RY1NG1"},{"rt":null,"stimulus":"stimuli/25.jpg","button_pressed":null,"name":"noRating","trial_type":"image-button-response","trial_index":15,"time_elapsed":157498,"internal_node_id":"0.0-15.0","participant_id":"A610SH5RY1NG1"},{"rt":1372,"stimulus":"stimuli/25.jpg","button_pressed":"0","name":"valence","trial_type":"image-button-response","trial_index":16,"time_elapsed":158873,"internal_node_id":"0.0-16.0","participant_id":"A610SH5RY1NG1"},{"rt":3103,"response":"83","name":"rating","trial_type":"image-slider-response","trial_index":17,"time_elapsed":161980,"internal_node_id":"0.0-17.0","participant_id":"A610SH5RY1NG1"},{"rt":1961,"stimulus":"stimuli/25.jpg","button_pressed":"0","name":"emotionType","trial_type":"image-button-response","trial_index":18,"time_elapsed":163945,"internal_node_id":"0.0-18.0","participant_id":"A610SH5RY1NG1"},{"rt":null,"stimulus":"<p style=\"font-size: 48px;\">+</p>","key_press":null,"Name":"fixation","trial_type":"html-keyboard-response","trial_index":19,"time_elapsed":165328,"internal_node_id":"0.0-19.0","participant_id":"A610SH5RY1NG1"},{"rt":null,"stimulus":"stimuli/7.jpg","button_pressed":null,"name":"noRating","trial_type":"image-button-response","trial_index":20,"time_elapsed":170332,"internal_node_id":"0.0-20.0","participant_id":"A610SH5RY1NG1"},{"rt":1228,"stimulus":"stimuli/7.jpg","button_pressed":"0","name":"valence","trial_type":"image-button-response","trial_index":21,"time_elapsed":171565,"internal_node_id":"0.0-21.0","participant_id":"A610SH5RY1NG1"},{"rt":3236,"response":"87","name":"rating","trial_type":"image-slider-response","trial_index":22,"time_elapsed":174806,"internal_node_id":"0.0-22.0","participant_id":"A610SH5RY1NG1"},{"rt":1240,"stimulus":"stimuli/7.jpg","button_pressed":"0","name":"emotionType","trial_type":"image-button-response","trial_index":23,"time_elapsed":176050,"internal_node_id":"0.0-23.0","participant_id":"A610SH5RY1NG1"},{"rt":null,"stimulus":"<p style=\"font-size: 48px;\">+</p>","key_press":null,"Name":"fixation","trial_type":"html-keyboard-response","trial_index":24,"time_elapsed":177553,"internal_node_id":"0.0-24.0","participant_id":"A610SH5RY1NG1"},{"rt":null,"stimulus":"stimuli/50.jpg","button_pressed":null,"name":"noRating","trial_type":"image-button-response","trial_index":25,"time_elapsed":182556,"internal_node_id":"0.0-25.0","participant_id":"A610SH5RY1NG1"},{"rt":1757,"stimulus":"stimuli/50.jpg","button_pressed":"0","name":"valence","trial_type":"image-button-response","trial_index":26,"time_elapsed":184316,"internal_node_id":"0.0-26.0","participant_id":"A610SH5RY1NG1"},{"rt":2160,"response":"46","name":"rating","trial_type":"image-slider-response","trial_index":27,"time_elapsed":186481,"internal_node_id":"0.0-27.0","participant_id":"A610SH5RY1NG1"},{"rt":1161,"stimulus":"stimuli/50.jpg","button_pressed":"0","name":"emotionType","trial_type":"image-button-response","trial_index":28,"time_elapsed":187647,"internal_node_id":"0.0-28.0","participant_id":"A610SH5RY1NG1"},{"rt":null,"stimulus":"<p style=\"font-size: 48px;\">+</p>","key_press":null,"Name":"fixation","trial_type":"html-keyboard-response","trial_index":29,"time_elapsed":188150,"internal_node_id":"0.0-29.0","participant_id":"A610SH5RY1NG1"},{"rt":null,"stimulus":"stimuli/43.jpg","button_pressed":null,"name":"noRating","trial_type":"image-button-response","trial_index":30,"time_elapsed":193153,"internal_node_id":"0.0-30.0","participant_id":"A610SH5RY1NG1"},{"rt":1442,"stimulus":"stimuli/43.jpg","button_pressed":"1","name":"valence","trial_type":"image-button-response","trial_index":31,"time_elapsed":194598,"internal_node_id":"0.0-31.0","participant_id":"A610SH5RY1NG1"},{"rt":2205,"response":"44","name":"rating","trial_type":"image-slider-response","trial_index":32,"time_elapsed":196808,"internal_node_id":"0.0-32.0","participant_id":"A610SH5RY1NG1"},{"rt":2735,"stimulus":"stimuli/43.jpg","button_pressed":"2","name":"emotionType","trial_type":"image-button-response","trial_index":33,"time_elapsed":199547,"internal_node_id":"0.0-33.0","participant_id":"A610SH5RY1NG1"},{"rt":3912,"responses":"{\"Q0\":\"rock\"}","trial_type":"survey-text","trial_index":34,"time_elapsed":203463,"internal_node_id":"0.0-34.0-0.0","participant_id":"A610SH5RY1NG1"},{"rt":null,"stimulus":"<p style=\"font-size: 48px;\">+</p>","key_press":null,"Name":"fixation","trial_type":"html-keyboard-response","trial_index":35,"time_elapsed":204467,"internal_node_id":"0.0-35.0","participant_id":"A610SH5RY1NG1"},{"rt":null,"stimulus":"stimuli/67.jpg","button_pressed":null,"name":"noRating","trial_type":"image-button-response","trial_index":36,"time_elapsed":209470,"internal_node_id":"0.0-36.0","participant_id":"A610SH5RY1NG1"},{"rt":1585,"stimulus":"stimuli/67.jpg","button_pressed":"1","name":"valence","trial_type":"image-button-response","trial_index":37,"time_elapsed":211058,"internal_node_id":"0.0-37.0","participant_id":"A610SH5RY1NG1"},{"rt":2376,"response":"33","name":"rating","trial_type":"image-slider-response","trial_index":38,"time_elapsed":213440,"internal_node_id":"0.0-38.0","participant_id":"A610SH5RY1NG1"},{"rt":7333,"stimulus":"stimuli/67.jpg","button_pressed":"1","name":"emotionType","trial_type":"image-button-response","trial_index":39,"time_elapsed":220778,"internal_node_id":"0.0-39.0","participant_id":"A610SH5RY1NG1"},{"rt":null,"stimulus":"<p style=\"font-size: 48px;\">+</p>","key_press":null,"Name":"fixation","trial_type":"html-keyboard-response","trial_index":40,"time_elapsed":221279,"internal_node_id":"0.0-40.0","participant_id":"A610SH5RY1NG1"},{"rt":null,"stimulus":"stimuli/61.jpg","button_pressed":null,"name":"noRating","trial_type":"image-button-response","trial_index":41,"time_elapsed":226330,"internal_node_id":"0.0-41.0","participant_id":"A610SH5RY1NG1"},{"rt":1638,"stimulus":"stimuli/61.jpg","button_pressed":"0","name":"valence","trial_type":"image-button-response","trial_index":42,"time_elapsed":227973,"internal_node_id":"0.0-42.0","participant_id":"A610SH5RY1NG1"},{"rt":2088,"response":"34","name":"rating","trial_type":"image-slider-response","trial_index":43,"time_elapsed":230064,"internal_node_id":"0.0-43.0","participant_id":"A610SH5RY1NG1"},{"rt":3627,"stimulus":"stimuli/61.jpg","button_pressed":"0","name":"emotionType","trial_type":"image-button-response","trial_index":44,"time_elapsed":233695,"internal_node_id":"0.0-44.0","participant_id":"A610SH5RY1NG1"},{"rt":null,"stimulus":"<p style=\"font-size: 48px;\">+</p>","key_press":null,"Name":"fixation","trial_type":"html-keyboard-response","trial_index":45,"time_elapsed":235197,"internal_node_id":"0.0-45.0","participant_id":"A610SH5RY1NG1"},{"rt":null,"stimulus":"stimuli/53.jpg","button_pressed":null,"name":"noRating","trial_type":"image-button-response","trial_index":46,"time_elapsed":240198,"internal_node_id":"0.0-46.0","participant_id":"A610SH5RY1NG1"},{"rt":3116,"stimulus":"stimuli/53.jpg","button_pressed":"0","name":"valence","trial_type":"image-button-response","trial_index":47,"time_elapsed":243316,"internal_node_id":"0.0-47.0","participant_id":"A610SH5RY1NG1"},{"rt":4853,"response":"53","name":"rating","trial_type":"image-slider-response","trial_index":48,"time_elapsed":248173,"internal_node_id":"0.0-48.0","participant_id":"A610SH5RY1NG1"},{"rt":1994,"stimulus":"stimuli/53.jpg","button_pressed":"0","name":"emotionType","trial_type":"image-button-response","trial_index":49,"time_elapsed":250171,"internal_node_id":"0.0-49.0","participant_id":"A610SH5RY1NG1"},{"rt":null,"stimulus":"<p style=\"font-size: 48px;\">+</p>","key_press":null,"Name":"fixation","trial_type":"html-keyboard-response","trial_index":50,"time_elapsed":251173,"internal_node_id":"0.0-50.0","participant_id":"A610SH5RY1NG1"},{"rt":null,"stimulus":"stimuli/9.jpg","button_pressed":null,"name":"noRating","trial_type":"image-button-response","trial_index":51,"time_elapsed":256176,"internal_node_id":"0.0-51.0","participant_id":"A610SH5RY1NG1"},{"rt":2399,"stimulus":"stimuli/9.jpg","button_pressed":"0","name":"valence","trial_type":"image-button-response","trial_index":52,"time_elapsed":258578,"internal_node_id":"0.0-52.0","participant_id":"A610SH5RY1NG1"},{"rt":1386,"response":"32","name":"rating","trial_type":"image-slider-response","trial_index":53,"time_elapsed":259968,"internal_node_id":"0.0-53.0","participant_id":"A610SH5RY1NG1"},{"rt":7510,"stimulus":"stimuli/9.jpg","button_pressed":"0","name":"emotionType","trial_type":"image-button-response","trial_index":54,"time_elapsed":267482,"internal_node_id":"0.0-54.0","participant_id":"A610SH5RY1NG1"},{"rt":null,"stimulus":"<p style=\"font-size: 48px;\">+</p>","key_press":null,"Name":"fixation","trial_type":"html-keyboard-response","trial_index":55,"time_elapsed":267984,"internal_node_id":"0.0-55.0","participant_id":"A610SH5RY1NG1"},{"rt":null,"stimulus":"stimuli/71.jpg","button_pressed":null,"name":"noRating","trial_type":"image-button-response","trial_index":56,"time_elapsed":272987,"internal_node_id":"0.0-56.0","participant_id":"A610SH5RY1NG1"},{"rt":622,"stimulus":"stimuli/71.jpg","button_pressed":"0","name":"valence","trial_type":"image-button-response","trial_index":57,"time_elapsed":273613,"internal_node_id":"0.0-57.0","participant_id":"A610SH5RY1NG1"},{"rt":1130,"response":"35","name":"rating","trial_type":"image-slider-response","trial_index":58,"time_elapsed":274748,"internal_node_id":"0.0-58.0","participant_id":"A610SH5RY1NG1"},{"rt":1134,"stimulus":"stimuli/71.jpg","button_pressed":"0","name":"emotionType","trial_type":"image-button-response","trial_index":59,"time_elapsed":275888,"internal_node_id":"0.0-59.0","participant_id":"A610SH5RY1NG1"},{"rt":2952,"responses":"{\"Q0\":\"sky\"}","trial_type":"survey-text","trial_index":60,"time_elapsed":278843,"internal_node_id":"0.0-60.0-0.0","participant_id":"A610SH5RY1NG1"},{"rt":null,"stimulus":"<p style=\"font-size: 48px;\">+</p>","key_press":null,"Name":"fixation","trial_type":"html-keyboard-response","trial_index":61,"time_elapsed":281327,"internal_node_id":"0.0-61.0","participant_id":"A610SH5RY1NG1"},{"rt":null,"stimulus":"stimuli/55.jpg","button_pressed":null,"name":"noRating","trial_type":"image-button-response","trial_index":62,"time_elapsed":286329,"internal_node_id":"0.0-62.0","participant_id":"A610SH5RY1NG1"},{"rt":1220,"stimulus":"stimuli/55.jpg","button_pressed":"0","name":"valence","trial_type":"image-button-response","trial_index":63,"time_elapsed":287553,"internal_node_id":"0.0-63.0","participant_id":"A610SH5RY1NG1"},{"rt":1095,"response":"37","name":"rating","trial_type":"image-slider-response","trial_index":64,"time_elapsed":288652,"internal_node_id":"0.0-64.0","participant_id":"A610SH5RY1NG1"},{"rt":580,"stimulus":"stimuli/55.jpg","button_pressed":"0","name":"emotionType","trial_type":"image-button-response","trial_index":65,"time_elapsed":289233,"internal_node_id":"0.0-65.0","participant_id":"A610SH5RY1NG1"},{"rt":null,"stimulus":"<p style=\"font-size: 48px;\">+</p>","key_press":null,"Name":"fixation","trial_type":"html-keyboard-response","trial_index":66,"time_elapsed":290735,"internal_node_id":"0.0-66.0","participant_id":"A610SH5RY1NG1"},{"rt":null,"stimulus":"stimuli/5.jpg","button_pressed":null,"name":"noRating","trial_type":"image-button-response","trial_index":67,"time_elapsed":295738,"internal_node_id":"0.0-67.0","participant_id":"A610SH5RY1NG1"},{"rt":1818,"stimulus":"stimuli/5.jpg","button_pressed":"0","name":"valence","trial_type":"image-button-response","trial_index":68,"time_elapsed":297563,"internal_node_id":"0.0-68.0","participant_id":"A610SH5RY1NG1"},{"rt":1534,"response":"34","name":"rating","trial_type":"image-slider-response","trial_index":69,"time_elapsed":299102,"internal_node_id":"0.0-69.0","participant_id":"A610SH5RY1NG1"},{"rt":1024,"stimulus":"stimuli/5.jpg","button_pressed":"0","name":"emotionType","trial_type":"image-button-response","trial_index":70,"time_elapsed":300129,"internal_node_id":"0.0-70.0","participant_id":"A610SH5RY1NG1"},{"rt":null,"stimulus":"<p style=\"font-size: 48px;\">+</p>","key_press":null,"Name":"fixation","trial_type":"html-keyboard-response","trial_index":71,"time_elapsed":301632,"internal_node_id":"0.0-71.0","participant_id":"A610SH5RY1NG1"},{"rt":null,"stimulus":"stimuli/23.jpg","button_pressed":null,"name":"noRating","trial_type":"image-button-response","trial_index":72,"time_elapsed":306635,"internal_node_id":"0.0-72.0","participant_id":"A610SH5RY1NG1"},{"rt":1426,"stimulus":"stimuli/23.jpg","button_pressed":"0","name":"valence","trial_type":"image-button-response","trial_index":73,"time_elapsed":308065,"internal_node_id":"0.0-73.0","participant_id":"A610SH5RY1NG1"},{"rt":2153,"response":"3","name":"rating","trial_type":"image-slider-response","trial_index":74,"time_elapsed":310222,"internal_node_id":"0.0-74.0","participant_id":"A610SH5RY1NG1"},{"rt":940,"stimulus":"stimuli/23.jpg","button_pressed":"2","name":"emotionType","trial_type":"image-button-response","trial_index":75,"time_elapsed":311166,"internal_node_id":"0.0-75.0","participant_id":"A610SH5RY1NG1"},{"rt":null,"stimulus":"<p style=\"font-size: 48px;\">+</p>","key_press":null,"Name":"fixation","trial_type":"html-keyboard-response","trial_index":76,"time_elapsed":312169,"internal_node_id":"0.0-76.0","participant_id":"A610SH5RY1NG1"},{"rt":null,"stimulus":"stimuli/68.jpg","button_pressed":null,"name":"noRating","trial_type":"image-button-response","trial_index":77,"time_elapsed":317171,"internal_node_id":"0.0-77.0","participant_id":"A610SH5RY1NG1"},{"rt":1544,"stimulus":"stimuli/68.jpg","button_pressed":"2","name":"valence","trial_type":"image-button-response","trial_index":78,"time_elapsed":318717,"internal_node_id":"0.0-78.0","participant_id":"A610SH5RY1NG1"},{"rt":1962,"response":"6","name":"rating","trial_type":"image-slider-response","trial_index":79,"time_elapsed":320683,"internal_node_id":"0.0-79.0","participant_id":"A610SH5RY1NG1"},{"rt":2026,"stimulus":"stimuli/68.jpg","button_pressed":"2","name":"emotionType","trial_type":"image-button-response","trial_index":80,"time_elapsed":322711,"internal_node_id":"0.0-80.0","participant_id":"A610SH5RY1NG1"},{"rt":null,"stimulus":"<p style=\"font-size: 48px;\">+</p>","key_press":null,"Name":"fixation","trial_type":"html-keyboard-response","trial_index":81,"time_elapsed":324213,"internal_node_id":"0.0-81.0","participant_id":"A610SH5RY1NG1"},{"rt":null,"stimulus":"stimuli/28.jpg","button_pressed":null,"name":"noRating","trial_type":"image-button-response","trial_index":82,"time_elapsed":329215,"internal_node_id":"0.0-82.0","participant_id":"A610SH5RY1NG1"},{"rt":1401,"stimulus":"stimuli/28.jpg","button_pressed":"0","name":"valence","trial_type":"image-button-response","trial_index":83,"time_elapsed":330618,"internal_node_id":"0.0-83.0","participant_id":"A610SH5RY1NG1"},{"rt":1195,"response":"13","name":"rating","trial_type":"image-slider-response","trial_index":84,"time_elapsed":331815,"internal_node_id":"0.0-84.0","participant_id":"A610SH5RY1NG1"},{"rt":538,"stimulus":"stimuli/28.jpg","button_pressed":"0","name":"emotionType","trial_type":"image-button-response","trial_index":85,"time_elapsed":332356,"internal_node_id":"0.0-85.0","participant_id":"A610SH5RY1NG1"},{"rt":3467,"responses":"{\"Q0\":\"our\"}","trial_type":"survey-text","trial_index":86,"time_elapsed":335826,"internal_node_id":"0.0-86.0-0.0","participant_id":"A610SH5RY1NG1"},{"rt":null,"stimulus":"<p style=\"font-size: 48px;\">+</p>","key_press":null,"Name":"fixation","trial_type":"html-keyboard-response","trial_index":87,"time_elapsed":336328,"internal_node_id":"0.0-87.0","participant_id":"A610SH5RY1NG1"},{"rt":null,"stimulus":"stimuli/70.jpg","button_pressed":null,"name":"noRating","trial_type":"image-button-response","trial_index":88,"time_elapsed":341331,"internal_node_id":"0.0-88.0","participant_id":"A610SH5RY1NG1"},{"rt":1137,"stimulus":"stimuli/70.jpg","button_pressed":"2","name":"valence","trial_type":"image-button-response","trial_index":89,"time_elapsed":342472,"internal_node_id":"0.0-89.0","participant_id":"A610SH5RY1NG1"},{"rt":1416,"response":"8","name":"rating","trial_type":"image-slider-response","trial_index":90,"time_elapsed":343891,"internal_node_id":"0.0-90.0","participant_id":"A610SH5RY1NG1"},{"rt":1327,"stimulus":"stimuli/70.jpg","button_pressed":"2","name":"emotionType","trial_type":"image-button-response","trial_index":91,"time_elapsed":345223,"internal_node_id":"0.0-91.0","participant_id":"A610SH5RY1NG1"},{"rt":null,"stimulus":"<p style=\"font-size: 48px;\">+</p>","key_press":null,"Name":"fixation","trial_type":"html-keyboard-response","trial_index":92,"time_elapsed":346226,"internal_node_id":"0.0-92.0","participant_id":"A610SH5RY1NG1"},{"rt":null,"stimulus":"stimuli/16.jpg","button_pressed":null,"name":"noRating","trial_type":"image-button-response","trial_index":93,"time_elapsed":351228,"internal_node_id":"0.0-93.0","participant_id":"A610SH5RY1NG1"},{"rt":1110,"stimulus":"stimuli/16.jpg","button_pressed":"2","name":"valence","trial_type":"image-button-response","trial_index":94,"time_elapsed":352341,"internal_node_id":"0.0-94.0","participant_id":"A610SH5RY1NG1"},{"rt":1760,"response":"3","name":"rating","trial_type":"image-slider-response","trial_index":95,"time_elapsed":354106,"internal_node_id":"0.0-95.0","participant_id":"A610SH5RY1NG1"},{"rt":890,"stimulus":"stimuli/16.jpg","button_pressed":"2","name":"emotionType","trial_type":"image-button-response","trial_index":96,"time_elapsed":355002,"internal_node_id":"0.0-96.0","participant_id":"A610SH5RY1NG1"},{"rt":null,"stimulus":"<p style=\"font-size: 48px;\">+</p>","key_press":null,"Name":"fixation","trial_type":"html-keyboard-response","trial_index":97,"time_elapsed":356005,"internal_node_id":"0.0-97.0","participant_id":"A610SH5RY1NG1"},{"rt":null,"stimulus":"stimuli/35.jpg","button_pressed":null,"name":"noRating","trial_type":"image-button-response","trial_index":98,"time_elapsed":361007,"internal_node_id":"0.0-98.0","participant_id":"A610SH5RY1NG1"},{"rt":1208,"stimulus":"stimuli/35.jpg","button_pressed":"1","name":"valence","trial_type":"image-button-response","trial_index":99,"time_elapsed":362219,"internal_node_id":"0.0-99.0","participant_id":"A610SH5RY1NG1"},{"rt":1386,"response":"9","name":"rating","trial_type":"image-slider-response","trial_index":100,"time_elapsed":363608,"internal_node_id":"0.0-100.0","participant_id":"A610SH5RY1NG1"},{"rt":1427,"stimulus":"stimuli/35.jpg","button_pressed":"4","name":"emotionType","trial_type":"image-button-response","trial_index":101,"time_elapsed":365040,"internal_node_id":"0.0-101.0","participant_id":"A610SH5RY1NG1"},{"rt":null,"stimulus":"<p style=\"font-size: 48px;\">+</p>","key_press":null,"Name":"fixation","trial_type":"html-keyboard-response","trial_index":102,"time_elapsed":366542,"internal_node_id":"0.0-102.0","participant_id":"A610SH5RY1NG1"},{"rt":null,"stimulus":"stimuli/45.jpg","button_pressed":null,"name":"noRating","trial_type":"image-button-response","trial_index":103,"time_elapsed":371544,"internal_node_id":"0.0-103.0","participant_id":"A610SH5RY1NG1"},{"rt":1240,"stimulus":"stimuli/45.jpg","button_pressed":"2","name":"valence","trial_type":"image-button-response","trial_index":104,"time_elapsed":372787,"internal_node_id":"0.0-104.0","participant_id":"A610SH5RY1NG1"},{"rt":1167,"response":"5","name":"rating","trial_type":"image-slider-response","trial_index":105,"time_elapsed":373958,"internal_node_id":"0.0-105.0","participant_id":"A610SH5RY1NG1"},{"rt":948,"stimulus":"stimuli/45.jpg","button_pressed":"2","name":"emotionType","trial_type":"image-button-response","trial_index":106,"time_elapsed":374910,"internal_node_id":"0.0-106.0","participant_id":"A610SH5RY1NG1"},{"rt":null,"stimulus":"<p style=\"font-size: 48px;\">+</p>","key_press":null,"Name":"fixation","trial_type":"html-keyboard-response","trial_index":107,"time_elapsed":375412,"internal_node_id":"0.0-107.0","participant_id":"A610SH5RY1NG1"},{"rt":null,"stimulus":"stimuli/1.jpg","button_pressed":null,"name":"noRating","trial_type":"image-button-response","trial_index":108,"time_elapsed":380414,"internal_node_id":"0.0-108.0","participant_id":"A610SH5RY1NG1"},{"rt":1285,"stimulus":"stimuli/1.jpg","button_pressed":"2","name":"valence","trial_type":"image-button-response","trial_index":109,"time_elapsed":381702,"internal_node_id":"0.0-109.0","participant_id":"A610SH5RY1NG1"},{"rt":1450,"response":"25","name":"rating","trial_type":"image-slider-response","trial_index":110,"time_elapsed":383159,"internal_node_id":"0.0-110.0","participant_id":"A610SH5RY1NG1"},{"rt":2372,"stimulus":"stimuli/1.jpg","button_pressed":"0","name":"emotionType","trial_type":"image-button-response","trial_index":111,"time_elapsed":385535,"internal_node_id":"0.0-111.0","participant_id":"A610SH5RY1NG1"},{"rt":3284,"responses":"{\"Q0\":\"course\"}","trial_type":"survey-text","trial_index":112,"time_elapsed":388822,"internal_node_id":"0.0-112.0-0.0","participant_id":"A610SH5RY1NG1"},{"rt":null,"stimulus":"<p style=\"font-size: 48px;\">+</p>","key_press":null,"Name":"fixation","trial_type":"html-keyboard-response","trial_index":113,"time_elapsed":390325,"internal_node_id":"0.0-113.0","participant_id":"A610SH5RY1NG1"},{"rt":null,"stimulus":"stimuli/66.jpg","button_pressed":null,"name":"noRating","trial_type":"image-button-response","trial_index":114,"time_elapsed":395328,"internal_node_id":"0.0-114.0","participant_id":"A610SH5RY1NG1"},{"rt":2084,"stimulus":"stimuli/66.jpg","button_pressed":"2","name":"valence","trial_type":"image-button-response","trial_index":115,"time_elapsed":397415,"internal_node_id":"0.0-115.0","participant_id":"A610SH5RY1NG1"},{"rt":1154,"response":"10","name":"rating","trial_type":"image-slider-response","trial_index":116,"time_elapsed":398572,"internal_node_id":"0.0-116.0","participant_id":"A610SH5RY1NG1"},{"rt":2033,"stimulus":"stimuli/66.jpg","button_pressed":"2","name":"emotionType","trial_type":"image-button-response","trial_index":117,"time_elapsed":400610,"internal_node_id":"0.0-117.0","participant_id":"A610SH5RY1NG1"},{"rt":null,"stimulus":"<p style=\"font-size: 48px;\">+</p>","key_press":null,"Name":"fixation","trial_type":"html-keyboard-response","trial_index":118,"time_elapsed":401112,"internal_node_id":"0.0-118.0","participant_id":"A610SH5RY1NG1"},{"rt":null,"stimulus":"stimuli/69.jpg","button_pressed":null,"name":"noRating","trial_type":"image-button-response","trial_index":119,"time_elapsed":406115,"internal_node_id":"0.0-119.0","participant_id":"A610SH5RY1NG1"},{"rt":1214,"stimulus":"stimuli/69.jpg","button_pressed":"2","name":"valence","trial_type":"image-button-response","trial_index":120,"time_elapsed":407331,"internal_node_id":"0.0-120.0","participant_id":"A610SH5RY1NG1"},{"rt":1184,"response":"32","name":"rating","trial_type":"image-slider-response","trial_index":121,"time_elapsed":408521,"internal_node_id":"0.0-121.0","participant_id":"A610SH5RY1NG1"},{"rt":920,"stimulus":"stimuli/69.jpg","button_pressed":"2","name":"emotionType","trial_type":"image-button-response","trial_index":122,"time_elapsed":409445,"internal_node_id":"0.0-122.0","participant_id":"A610SH5RY1NG1"},{"rt":null,"stimulus":"<p style=\"font-size: 48px;\">+</p>","key_press":null,"Name":"fixation","trial_type":"html-keyboard-response","trial_index":123,"time_elapsed":409947,"internal_node_id":"0.0-123.0","participant_id":"A610SH5RY1NG1"},{"rt":null,"stimulus":"stimuli/13.jpg","button_pressed":null,"name":"noRating","trial_type":"image-button-response","trial_index":124,"time_elapsed":414950,"internal_node_id":"0.0-124.0","participant_id":"A610SH5RY1NG1"},{"rt":1146,"stimulus":"stimuli/13.jpg","button_pressed":"2","name":"valence","trial_type":"image-button-response","trial_index":125,"time_elapsed":416100,"internal_node_id":"0.0-125.0","participant_id":"A610SH5RY1NG1"},{"rt":1159,"response":"31","name":"rating","trial_type":"image-slider-response","trial_index":126,"time_elapsed":417263,"internal_node_id":"0.0-126.0","participant_id":"A610SH5RY1NG1"},{"rt":1004,"stimulus":"stimuli/13.jpg","button_pressed":"2","name":"emotionType","trial_type":"image-button-response","trial_index":127,"time_elapsed":418271,"internal_node_id":"0.0-127.0","participant_id":"A610SH5RY1NG1"},{"rt":null,"stimulus":"<p style=\"font-size: 48px;\">+</p>","key_press":null,"Name":"fixation","trial_type":"html-keyboard-response","trial_index":128,"time_elapsed":419773,"internal_node_id":"0.0-128.0","participant_id":"A610SH5RY1NG1"},{"rt":null,"stimulus":"stimuli/4.jpg","button_pressed":null,"name":"noRating","trial_type":"image-button-response","trial_index":129,"time_elapsed":424775,"internal_node_id":"0.0-129.0","participant_id":"A610SH5RY1NG1"},{"rt":1233,"stimulus":"stimuli/4.jpg","button_pressed":"0","name":"valence","trial_type":"image-button-response","trial_index":130,"time_elapsed":426012,"internal_node_id":"0.0-130.0","participant_id":"A610SH5RY1NG1"},{"rt":1271,"response":"2","name":"rating","trial_type":"image-slider-response","trial_index":131,"time_elapsed":427287,"internal_node_id":"0.0-131.0","participant_id":"A610SH5RY1NG1"},{"rt":512,"stimulus":"stimuli/4.jpg","button_pressed":"0","name":"emotionType","trial_type":"image-button-response","trial_index":132,"time_elapsed":427803,"internal_node_id":"0.0-132.0","participant_id":"A610SH5RY1NG1"},{"rt":null,"stimulus":"<p style=\"font-size: 48px;\">+</p>","key_press":null,"Name":"fixation","trial_type":"html-keyboard-response","trial_index":133,"time_elapsed":429328,"internal_node_id":"0.0-133.0","participant_id":"A610SH5RY1NG1"},{"rt":null,"stimulus":"stimuli/44.jpg","button_pressed":null,"name":"noRating","trial_type":"image-button-response","trial_index":134,"time_elapsed":434331,"internal_node_id":"0.0-134.0","participant_id":"A610SH5RY1NG1"},{"rt":1180,"stimulus":"stimuli/44.jpg","button_pressed":"0","name":"valence","trial_type":"image-button-response","trial_index":135,"time_elapsed":435513,"internal_node_id":"0.0-135.0","participant_id":"A610SH5RY1NG1"},{"rt":1416,"response":"61","name":"rating","trial_type":"image-slider-response","trial_index":136,"time_elapsed":436933,"internal_node_id":"0.0-136.0","participant_id":"A610SH5RY1NG1"},{"rt":615,"stimulus":"stimuli/44.jpg","button_pressed":"0","name":"emotionType","trial_type":"image-button-response","trial_index":137,"time_elapsed":437552,"internal_node_id":"0.0-137.0","participant_id":"A610SH5RY1NG1"},{"rt":3424,"responses":"{\"Q0\":\"we\"}","trial_type":"survey-text","trial_index":138,"time_elapsed":440981,"internal_node_id":"0.0-138.0-0.0","participant_id":"A610SH5RY1NG1"},{"rt":null,"stimulus":"<p style=\"font-size: 48px;\">+</p>","key_press":null,"Name":"fixation","trial_type":"html-keyboard-response","trial_index":139,"time_elapsed":441984,"internal_node_id":"0.0-139.0","participant_id":"A610SH5RY1NG1"},{"rt":null,"stimulus":"stimuli/34.jpg","button_pressed":null,"name":"noRating","trial_type":"image-button-response","trial_index":140,"time_elapsed":446986,"internal_node_id":"0.0-140.0","participant_id":"A610SH5RY1NG1"},{"rt":1617,"stimulus":"stimuli/34.jpg","button_pressed":"0","name":"valence","trial_type":"image-button-response","trial_index":141,"time_elapsed":448605,"internal_node_id":"0.0-141.0","participant_id":"A610SH5RY1NG1"},{"rt":1216,"response":"21","name":"rating","trial_type":"image-slider-response","trial_index":142,"time_elapsed":449824,"internal_node_id":"0.0-142.0","participant_id":"A610SH5RY1NG1"},{"rt":950,"stimulus":"stimuli/34.jpg","button_pressed":"0","name":"emotionType","trial_type":"image-button-response","trial_index":143,"time_elapsed":450777,"internal_node_id":"0.0-143.0","participant_id":"A610SH5RY1NG1"},{"rt":null,"stimulus":"<p style=\"font-size: 48px;\">+</p>","key_press":null,"Name":"fixation","trial_type":"html-keyboard-response","trial_index":144,"time_elapsed":451779,"internal_node_id":"0.0-144.0","participant_id":"A610SH5RY1NG1"},{"rt":null,"stimulus":"stimuli/42.jpg","button_pressed":null,"name":"noRating","trial_type":"image-button-response","trial_index":145,"time_elapsed":456781,"internal_node_id":"0.0-145.0","participant_id":"A610SH5RY1NG1"},{"rt":577,"stimulus":"stimuli/42.jpg","button_pressed":"2","name":"valence","trial_type":"image-button-response","trial_index":146,"time_elapsed":457361,"internal_node_id":"0.0-146.0","participant_id":"A610SH5RY1NG1"},{"rt":1868,"response":"33","name":"rating","trial_type":"image-slider-response","trial_index":147,"time_elapsed":459231,"internal_node_id":"0.0-147.0","participant_id":"A610SH5RY1NG1"},{"rt":806,"stimulus":"stimuli/42.jpg","button_pressed":"0","name":"emotionType","trial_type":"image-button-response","trial_index":148,"time_elapsed":460040,"internal_node_id":"0.0-148.0","participant_id":"A610SH5RY1NG1"},{"rt":null,"stimulus":"<p style=\"font-size: 48px;\">+</p>","key_press":null,"Name":"fixation","trial_type":"html-keyboard-response","trial_index":149,"time_elapsed":461041,"internal_node_id":"0.0-149.0","participant_id":"A610SH5RY1NG1"},{"rt":null,"stimulus":"stimuli/21.jpg","button_pressed":null,"name":"noRating","trial_type":"image-button-response","trial_index":150,"time_elapsed":466044,"internal_node_id":"0.0-150.0","participant_id":"A610SH5RY1NG1"},{"rt":5171,"stimulus":"stimuli/21.jpg","button_pressed":"2","name":"valence","trial_type":"image-button-response","trial_index":151,"time_elapsed":471217,"internal_node_id":"0.0-151.0","participant_id":"A610SH5RY1NG1"},{"rt":986,"response":"41","name":"rating","trial_type":"image-slider-response","trial_index":152,"time_elapsed":472206,"internal_node_id":"0.0-152.0","participant_id":"A610SH5RY1NG1"},{"rt":491,"stimulus":"stimuli/21.jpg","button_pressed":"0","name":"emotionType","trial_type":"image-button-response","trial_index":153,"time_elapsed":472702,"internal_node_id":"0.0-153.0","participant_id":"A610SH5RY1NG1"},{"rt":null,"stimulus":"<p style=\"font-size: 48px;\">+</p>","key_press":null,"Name":"fixation","trial_type":"html-keyboard-response","trial_index":154,"time_elapsed":474204,"internal_node_id":"0.0-154.0","participant_id":"A610SH5RY1NG1"},{"rt":null,"stimulus":"stimuli/39.jpg","button_pressed":null,"name":"noRating","trial_type":"image-button-response","trial_index":155,"time_elapsed":479207,"internal_node_id":"0.0-155.0","participant_id":"A610SH5RY1NG1"},{"rt":204714,"stimulus":"stimuli/39.jpg","button_pressed":"2","name":"valence","trial_type":"image-button-response","trial_index":156,"time_elapsed":683926,"internal_node_id":"0.0-156.0","participant_id":"A610SH5RY1NG1"},{"rt":2183,"response":"49","name":"rating","trial_type":"image-slider-response","trial_index":157,"time_elapsed":686113,"internal_node_id":"0.0-157.0","participant_id":"A610SH5RY1NG1"},{"rt":2057,"stimulus":"stimuli/39.jpg","button_pressed":"2","name":"emotionType","trial_type":"image-button-response","trial_index":158,"time_elapsed":688173,"internal_node_id":"0.0-158.0","participant_id":"A610SH5RY1NG1"},{"rt":null,"stimulus":"<p style=\"font-size: 48px;\">+</p>","key_press":null,"Name":"fixation","trial_type":"html-keyboard-response","trial_index":159,"time_elapsed":689675,"internal_node_id":"0.0-159.0","participant_id":"A610SH5RY1NG1"},{"rt":null,"stimulus":"stimuli/32.jpg","button_pressed":null,"name":"noRating","trial_type":"image-button-response","trial_index":160,"time_elapsed":694677,"internal_node_id":"0.0-160.0","participant_id":"A610SH5RY1NG1"},{"rt":1869,"stimulus":"stimuli/32.jpg","button_pressed":"2","name":"valence","trial_type":"image-button-response","trial_index":161,"time_elapsed":696550,"internal_node_id":"0.0-161.0","participant_id":"A610SH5RY1NG1"},{"rt":2178,"response":"50","name":"rating","trial_type":"image-slider-response","trial_index":162,"time_elapsed":698731,"internal_node_id":"0.0-162.0","participant_id":"A610SH5RY1NG1"},{"rt":1018,"stimulus":"stimuli/32.jpg","button_pressed":"2","name":"emotionType","trial_type":"image-button-response","trial_index":163,"time_elapsed":699752,"internal_node_id":"0.0-163.0","participant_id":"A610SH5RY1NG1"},{"rt":2561,"stimulus":"stimuli/ins/Slide8.JPG","button_pressed":"0","trial_type":"image-button-response","trial_index":164,"time_elapsed":702316,"internal_node_id":"0.0-164.0","participant_id":"A610SH5RY1NG1"}]