[{"rt":85818,"responses":"{\"Q0\":\"A8RDXT4ZILHQT\"}","trial_type":"survey-text","trial_index":0,"time_elapsed":85824,"internal_node_id":"0.0-0.0-0.0","participant_id":"A8RDXT4ZILHQT"},{"rt":4309,"stimulus":"stimuli/ins/Slide1.JPG","button_pressed":"0","Name":"instructions","trial_type":"image-button-response","trial_index":1,"time_elapsed":90136,"internal_node_id":"0.0-1.0","participant_id":"A8RDXT4ZILHQT"},{"rt":3420,"stimulus":"stimuli/ins/Slide2.JPG","button_pressed":"0","Name":"instructions","trial_type":"image-button-response","trial_index":2,"time_elapsed":93558,"internal_node_id":"0.0-2.0","participant_id":"A8RDXT4ZILHQT"},{"rt":1771,"stimulus":"stimuli/ins/Slide3.JPG","button_pressed":"0","Name":"instructions","trial_type":"image-button-response","trial_index":3,"time_elapsed":95330,"internal_node_id":"0.0-3.0","participant_id":"A8RDXT4ZILHQT"},{"rt":2890,"stimulus":"stimuli/ins/Slide4.JPG","button_pressed":"0","Name":"instructions","trial_type":"image-button-response","trial_index":4,"time_elapsed":98221,"internal_node_id":"0.0-4.0","participant_id":"A8RDXT4ZILHQT"},{"rt":2374,"stimulus":"stimuli/ins/Slide5.JPG","button_pressed":"0","Name":"instructions","trial_type":"image-button-response","trial_index":5,"time_elapsed":100595,"internal_node_id":"0.0-5.0","participant_id":"A8RDXT4ZILHQT"},{"rt":3278,"stimulus":"stimuli/ins/Slide6.JPG","button_pressed":"0","Name":"instructions","trial_type":"image-button-response","trial_index":6,"time_elapsed":103873,"internal_node_id":"0.0-6.0","participant_id":"A8RDXT4ZILHQT"},{"rt":2904,"stimulus":"stimuli/ins/Slide7.JPG","button_pressed":"0","Name":"instructions","trial_type":"image-button-response","trial_index":7,"time_elapsed":106778,"internal_node_id":"0.0-7.0","participant_id":"A8RDXT4ZILHQT"},{"rt":3741,"responses":"{\"Q0\":\"but\"}","trial_type":"survey-text","trial_index":8,"time_elapsed":110521,"internal_node_id":"0.0-8.0-0.0","participant_id":"A8RDXT4ZILHQT"},{"rt":null,"stimulus":"<p style=\"font-size: 48px;\">+</p>","key_press":null,"Name":"fixation","trial_type":"html-keyboard-response","trial_index":9,"time_elapsed":111523,"internal_node_id":"0.0-9.0","participant_id":"A8RDXT4ZILHQT"},{"rt":null,"stimulus":"stimuli/33.jpg","button_pressed":null,"name":"noRating","trial_type":"image-button-response","trial_index":10,"time_elapsed":116527,"internal_node_id":"0.0-10.0","participant_id":"A8RDXT4ZILHQT"},{"rt":2124,"stimulus":"stimuli/33.jpg","button_pressed":"0","name":"valence","trial_type":"image-button-response","trial_index":11,"time_elapsed":118651,"internal_node_id":"0.0-11.0","participant_id":"A8RDXT4ZILHQT"},{"rt":2457,"response":"34","name":"rating","trial_type":"image-slider-response","trial_index":12,"time_elapsed":121111,"internal_node_id":"0.0-12.0","participant_id":"A8RDXT4ZILHQT"},{"rt":2161,"stimulus":"stimuli/33.jpg","button_pressed":"0","name":"emotionType","trial_type":"image-button-response","trial_index":13,"time_elapsed":123273,"internal_node_id":"0.0-13.0","participant_id":"A8RDXT4ZILHQT"},{"rt":null,"stimulus":"<p style=\"font-size: 48px;\">+</p>","key_press":null,"Name":"fixation","trial_type":"html-keyboard-response","trial_index":14,"time_elapsed":123775,"internal_node_id":"0.0-14.0","participant_id":"A8RDXT4ZILHQT"},{"rt":null,"stimulus":"stimuli/9.jpg","button_pressed":null,"name":"noRating","trial_type":"image-button-response","trial_index":15,"time_elapsed":128776,"internal_node_id":"0.0-15.0","participant_id":"A8RDXT4ZILHQT"},{"rt":1316,"stimulus":"stimuli/9.jpg","button_pressed":"0","name":"valence","trial_type":"image-button-response","trial_index":16,"time_elapsed":130093,"internal_node_id":"0.0-16.0","participant_id":"A8RDXT4ZILHQT"},{"rt":1817,"response":"24","name":"rating","trial_type":"image-slider-response","trial_index":17,"time_elapsed":131911,"internal_node_id":"0.0-17.0","participant_id":"A8RDXT4ZILHQT"},{"rt":1514,"stimulus":"stimuli/9.jpg","button_pressed":"1","name":"emotionType","trial_type":"image-button-response","trial_index":18,"time_elapsed":133427,"internal_node_id":"0.0-18.0","participant_id":"A8RDXT4ZILHQT"},{"rt":null,"stimulus":"<p style=\"font-size: 48px;\">+</p>","key_press":null,"Name":"fixation","trial_type":"html-keyboard-response","trial_index":19,"time_elapsed":133929,"internal_node_id":"0.0-19.0","participant_id":"A8RDXT4ZILHQT"},{"rt":null,"stimulus":"stimuli/16.jpg","button_pressed":null,"name":"noRating","trial_type":"image-button-response","trial_index":20,"time_elapsed":138930,"internal_node_id":"0.0-20.0","participant_id":"A8RDXT4ZILHQT"},{"rt":933,"stimulus":"stimuli/16.jpg","button_pressed":"0","name":"valence","trial_type":"image-button-response","trial_index":21,"time_elapsed":139863,"internal_node_id":"0.0-21.0","participant_id":"A8RDXT4ZILHQT"},{"rt":1816,"response":"64","name":"rating","trial_type":"image-slider-response","trial_index":22,"time_elapsed":141681,"internal_node_id":"0.0-22.0","participant_id":"A8RDXT4ZILHQT"},{"rt":1254,"stimulus":"stimuli/16.jpg","button_pressed":"1","name":"emotionType","trial_type":"image-button-response","trial_index":23,"time_elapsed":142937,"internal_node_id":"0.0-23.0","participant_id":"A8RDXT4ZILHQT"},{"rt":null,"stimulus":"<p style=\"font-size: 48px;\">+</p>","key_press":null,"Name":"fixation","trial_type":"html-keyboard-response","trial_index":24,"time_elapsed":143438,"internal_node_id":"0.0-24.0","participant_id":"A8RDXT4ZILHQT"},{"rt":null,"stimulus":"stimuli/12.jpg","button_pressed":null,"name":"noRating","trial_type":"image-button-response","trial_index":25,"time_elapsed":148441,"internal_node_id":"0.0-25.0","participant_id":"A8RDXT4ZILHQT"},{"rt":2651,"stimulus":"stimuli/12.jpg","button_pressed":"0","name":"valence","trial_type":"image-button-response","trial_index":26,"time_elapsed":151092,"internal_node_id":"0.0-26.0","participant_id":"A8RDXT4ZILHQT"},{"rt":1488,"response":"52","name":"rating","trial_type":"image-slider-response","trial_index":27,"time_elapsed":152581,"internal_node_id":"0.0-27.0","participant_id":"A8RDXT4ZILHQT"},{"rt":811,"stimulus":"stimuli/12.jpg","button_pressed":"0","name":"emotionType","trial_type":"image-button-response","trial_index":28,"time_elapsed":153393,"internal_node_id":"0.0-28.0","participant_id":"A8RDXT4ZILHQT"},{"rt":null,"stimulus":"<p style=\"font-size: 48px;\">+</p>","key_press":null,"Name":"fixation","trial_type":"html-keyboard-response","trial_index":29,"time_elapsed":154895,"internal_node_id":"0.0-29.0","participant_id":"A8RDXT4ZILHQT"},{"rt":null,"stimulus":"stimuli/30.jpg","button_pressed":null,"name":"noRating","trial_type":"image-button-response","trial_index":30,"time_elapsed":159896,"internal_node_id":"0.0-30.0","participant_id":"A8RDXT4ZILHQT"},{"rt":8898,"stimulus":"stimuli/30.jpg","button_pressed":"0","name":"valence","trial_type":"image-button-response","trial_index":31,"time_elapsed":168796,"internal_node_id":"0.0-31.0","participant_id":"A8RDXT4ZILHQT"},{"rt":1604,"response":"37","name":"rating","trial_type":"image-slider-response","trial_index":32,"time_elapsed":170401,"internal_node_id":"0.0-32.0","participant_id":"A8RDXT4ZILHQT"},{"rt":991,"stimulus":"stimuli/30.jpg","button_pressed":"0","name":"emotionType","trial_type":"image-button-response","trial_index":33,"time_elapsed":171393,"internal_node_id":"0.0-33.0","participant_id":"A8RDXT4ZILHQT"},{"rt":4926,"responses":"{\"Q0\":\"rock\"}","trial_type":"survey-text","trial_index":34,"time_elapsed":176321,"internal_node_id":"0.0-34.0-0.0","participant_id":"A8RDXT4ZILHQT"},{"rt":null,"stimulus":"<p style=\"font-size: 48px;\">+</p>","key_press":null,"Name":"fixation","trial_type":"html-keyboard-response","trial_index":35,"time_elapsed":177822,"internal_node_id":"0.0-35.0","participant_id":"A8RDXT4ZILHQT"},{"rt":null,"stimulus":"stimuli/29.jpg","button_pressed":null,"name":"noRating","trial_type":"image-button-response","trial_index":36,"time_elapsed":182824,"internal_node_id":"0.0-36.0","participant_id":"A8RDXT4ZILHQT"},{"rt":3848,"stimulus":"stimuli/29.jpg","button_pressed":"0","name":"valence","trial_type":"image-button-response","trial_index":37,"time_elapsed":186673,"internal_node_id":"0.0-37.0","participant_id":"A8RDXT4ZILHQT"},{"rt":1746,"response":"53","name":"rating","trial_type":"image-slider-response","trial_index":38,"time_elapsed":188420,"internal_node_id":"0.0-38.0","participant_id":"A8RDXT4ZILHQT"},{"rt":984,"stimulus":"stimuli/29.jpg","button_pressed":"0","name":"emotionType","trial_type":"image-button-response","trial_index":39,"time_elapsed":189405,"internal_node_id":"0.0-39.0","participant_id":"A8RDXT4ZILHQT"},{"rt":null,"stimulus":"<p style=\"font-size: 48px;\">+</p>","key_press":null,"Name":"fixation","trial_type":"html-keyboard-response","trial_index":40,"time_elapsed":190407,"internal_node_id":"0.0-40.0","participant_id":"A8RDXT4ZILHQT"},{"rt":null,"stimulus":"stimuli/13.jpg","button_pressed":null,"name":"noRating","trial_type":"image-button-response","trial_index":41,"time_elapsed":195410,"internal_node_id":"0.0-41.0","participant_id":"A8RDXT4ZILHQT"},{"rt":5350,"stimulus":"stimuli/13.jpg","button_pressed":"0","name":"valence","trial_type":"image-button-response","trial_index":42,"time_elapsed":200761,"internal_node_id":"0.0-42.0","participant_id":"A8RDXT4ZILHQT"},{"rt":1837,"response":"48","name":"rating","trial_type":"image-slider-response","trial_index":43,"time_elapsed":202599,"internal_node_id":"0.0-43.0","participant_id":"A8RDXT4ZILHQT"},{"rt":1302,"stimulus":"stimuli/13.jpg","button_pressed":"0","name":"emotionType","trial_type":"image-button-response","trial_index":44,"time_elapsed":203901,"internal_node_id":"0.0-44.0","participant_id":"A8RDXT4ZILHQT"},{"rt":null,"stimulus":"<p style=\"font-size: 48px;\">+</p>","key_press":null,"Name":"fixation","trial_type":"html-keyboard-response","trial_index":45,"time_elapsed":205403,"internal_node_id":"0.0-45.0","participant_id":"A8RDXT4ZILHQT"},{"rt":null,"stimulus":"stimuli/4.jpg","button_pressed":null,"name":"noRating","trial_type":"image-button-response","trial_index":46,"time_elapsed":210405,"internal_node_id":"0.0-46.0","participant_id":"A8RDXT4ZILHQT"},{"rt":5972,"stimulus":"stimuli/4.jpg","button_pressed":"0","name":"valence","trial_type":"image-button-response","trial_index":47,"time_elapsed":216377,"internal_node_id":"0.0-47.0","participant_id":"A8RDXT4ZILHQT"},{"rt":1695,"response":"25","name":"rating","trial_type":"image-slider-response","trial_index":48,"time_elapsed":218073,"internal_node_id":"0.0-48.0","participant_id":"A8RDXT4ZILHQT"},{"rt":1082,"stimulus":"stimuli/4.jpg","button_pressed":"0","name":"emotionType","trial_type":"image-button-response","trial_index":49,"time_elapsed":219156,"internal_node_id":"0.0-49.0","participant_id":"A8RDXT4ZILHQT"},{"rt":null,"stimulus":"<p style=\"font-size: 48px;\">+</p>","key_press":null,"Name":"fixation","trial_type":"html-keyboard-response","trial_index":50,"time_elapsed":220659,"internal_node_id":"0.0-50.0","participant_id":"A8RDXT4ZILHQT"},{"rt":null,"stimulus":"stimuli/62.jpg","button_pressed":null,"name":"noRating","trial_type":"image-button-response","trial_index":51,"time_elapsed":225660,"internal_node_id":"0.0-51.0","participant_id":"A8RDXT4ZILHQT"},{"rt":267935,"stimulus":"stimuli/62.jpg","button_pressed":"0","name":"valence","trial_type":"image-button-response","trial_index":52,"time_elapsed":493595,"internal_node_id":"0.0-52.0","participant_id":"A8RDXT4ZILHQT"},{"rt":2313,"response":"35","name":"rating","trial_type":"image-slider-response","trial_index":53,"time_elapsed":495909,"internal_node_id":"0.0-53.0","participant_id":"A8RDXT4ZILHQT"},{"rt":745,"stimulus":"stimuli/62.jpg","button_pressed":"0","name":"emotionType","trial_type":"image-button-response","trial_index":54,"time_elapsed":496655,"internal_node_id":"0.0-54.0","participant_id":"A8RDXT4ZILHQT"},{"rt":null,"stimulus":"<p style=\"font-size: 48px;\">+</p>","key_press":null,"Name":"fixation","trial_type":"html-keyboard-response","trial_index":55,"time_elapsed":498892,"internal_node_id":"0.0-55.0","participant_id":"A8RDXT4ZILHQT"},{"rt":null,"stimulus":"stimuli/58.jpg","button_pressed":null,"name":"noRating","trial_type":"image-button-response","trial_index":56,"time_elapsed":503908,"internal_node_id":"0.0-56.0","participant_id":"A8RDXT4ZILHQT"},{"rt":5136,"stimulus":"stimuli/58.jpg","button_pressed":"0","name":"valence","trial_type":"image-button-response","trial_index":57,"time_elapsed":509045,"internal_node_id":"0.0-57.0","participant_id":"A8RDXT4ZILHQT"},{"rt":1514,"response":"9","name":"rating","trial_type":"image-slider-response","trial_index":58,"time_elapsed":510559,"internal_node_id":"0.0-58.0","participant_id":"A8RDXT4ZILHQT"},{"rt":732,"stimulus":"stimuli/58.jpg","button_pressed":"1","name":"emotionType","trial_type":"image-button-response","trial_index":59,"time_elapsed":511292,"internal_node_id":"0.0-59.0","participant_id":"A8RDXT4ZILHQT"},{"rt":5526,"responses":"{\"Q0\":\"sky\"}","trial_type":"survey-text","trial_index":60,"time_elapsed":516819,"internal_node_id":"0.0-60.0-0.0","participant_id":"A8RDXT4ZILHQT"},{"rt":null,"stimulus":"<p style=\"font-size: 48px;\">+</p>","key_press":null,"Name":"fixation","trial_type":"html-keyboard-response","trial_index":61,"time_elapsed":518321,"internal_node_id":"0.0-61.0","participant_id":"A8RDXT4ZILHQT"},{"rt":null,"stimulus":"stimuli/32.jpg","button_pressed":null,"name":"noRating","trial_type":"image-button-response","trial_index":62,"time_elapsed":523322,"internal_node_id":"0.0-62.0","participant_id":"A8RDXT4ZILHQT"},{"rt":4194,"stimulus":"stimuli/32.jpg","button_pressed":"0","name":"valence","trial_type":"image-button-response","trial_index":63,"time_elapsed":527516,"internal_node_id":"0.0-63.0","participant_id":"A8RDXT4ZILHQT"},{"rt":1806,"response":"33","name":"rating","trial_type":"image-slider-response","trial_index":64,"time_elapsed":529323,"internal_node_id":"0.0-64.0","participant_id":"A8RDXT4ZILHQT"},{"rt":701,"stimulus":"stimuli/32.jpg","button_pressed":"0","name":"emotionType","trial_type":"image-button-response","trial_index":65,"time_elapsed":530026,"internal_node_id":"0.0-65.0","participant_id":"A8RDXT4ZILHQT"},{"rt":null,"stimulus":"<p style=\"font-size: 48px;\">+</p>","key_press":null,"Name":"fixation","trial_type":"html-keyboard-response","trial_index":66,"time_elapsed":531527,"internal_node_id":"0.0-66.0","participant_id":"A8RDXT4ZILHQT"},{"rt":null,"stimulus":"stimuli/17.jpg","button_pressed":null,"name":"noRating","trial_type":"image-button-response","trial_index":67,"time_elapsed":536529,"internal_node_id":"0.0-67.0","participant_id":"A8RDXT4ZILHQT"},{"rt":1717,"stimulus":"stimuli/17.jpg","button_pressed":"0","name":"valence","trial_type":"image-button-response","trial_index":68,"time_elapsed":538247,"internal_node_id":"0.0-68.0","participant_id":"A8RDXT4ZILHQT"},{"rt":1598,"response":"32","name":"rating","trial_type":"image-slider-response","trial_index":69,"time_elapsed":539847,"internal_node_id":"0.0-69.0","participant_id":"A8RDXT4ZILHQT"},{"rt":1008,"stimulus":"stimuli/17.jpg","button_pressed":"0","name":"emotionType","trial_type":"image-button-response","trial_index":70,"time_elapsed":540857,"internal_node_id":"0.0-70.0","participant_id":"A8RDXT4ZILHQT"},{"rt":null,"stimulus":"<p style=\"font-size: 48px;\">+</p>","key_press":null,"Name":"fixation","trial_type":"html-keyboard-response","trial_index":71,"time_elapsed":541859,"internal_node_id":"0.0-71.0","participant_id":"A8RDXT4ZILHQT"},{"rt":null,"stimulus":"stimuli/10.jpg","button_pressed":null,"name":"noRating","trial_type":"image-button-response","trial_index":72,"time_elapsed":546860,"internal_node_id":"0.0-72.0","participant_id":"A8RDXT4ZILHQT"},{"rt":1836,"stimulus":"stimuli/10.jpg","button_pressed":"0","name":"valence","trial_type":"image-button-response","trial_index":73,"time_elapsed":548696,"internal_node_id":"0.0-73.0","participant_id":"A8RDXT4ZILHQT"},{"rt":2508,"response":"12","name":"rating","trial_type":"image-slider-response","trial_index":74,"time_elapsed":551205,"internal_node_id":"0.0-74.0","participant_id":"A8RDXT4ZILHQT"},{"rt":579,"stimulus":"stimuli/10.jpg","button_pressed":"0","name":"emotionType","trial_type":"image-button-response","trial_index":75,"time_elapsed":551785,"internal_node_id":"0.0-75.0","participant_id":"A8RDXT4ZILHQT"},{"rt":null,"stimulus":"<p style=\"font-size: 48px;\">+</p>","key_press":null,"Name":"fixation","trial_type":"html-keyboard-response","trial_index":76,"time_elapsed":553286,"internal_node_id":"0.0-76.0","participant_id":"A8RDXT4ZILHQT"},{"rt":null,"stimulus":"stimuli/21.jpg","button_pressed":null,"name":"noRating","trial_type":"image-button-response","trial_index":77,"time_elapsed":558287,"internal_node_id":"0.0-77.0","participant_id":"A8RDXT4ZILHQT"},{"rt":4907,"stimulus":"stimuli/21.jpg","button_pressed":"0","name":"valence","trial_type":"image-button-response","trial_index":78,"time_elapsed":563195,"internal_node_id":"0.0-78.0","participant_id":"A8RDXT4ZILHQT"},{"rt":1983,"response":"21","name":"rating","trial_type":"image-slider-response","trial_index":79,"time_elapsed":565179,"internal_node_id":"0.0-79.0","participant_id":"A8RDXT4ZILHQT"},{"rt":868,"stimulus":"stimuli/21.jpg","button_pressed":"0","name":"emotionType","trial_type":"image-button-response","trial_index":80,"time_elapsed":566048,"internal_node_id":"0.0-80.0","participant_id":"A8RDXT4ZILHQT"},{"rt":null,"stimulus":"<p style=\"font-size: 48px;\">+</p>","key_press":null,"Name":"fixation","trial_type":"html-keyboard-response","trial_index":81,"time_elapsed":567550,"internal_node_id":"0.0-81.0","participant_id":"A8RDXT4ZILHQT"},{"rt":null,"stimulus":"stimuli/47.jpg","button_pressed":null,"name":"noRating","trial_type":"image-button-response","trial_index":82,"time_elapsed":572552,"internal_node_id":"0.0-82.0","participant_id":"A8RDXT4ZILHQT"},{"rt":4387,"stimulus":"stimuli/47.jpg","button_pressed":"0","name":"valence","trial_type":"image-button-response","trial_index":83,"time_elapsed":576939,"internal_node_id":"0.0-83.0","participant_id":"A8RDXT4ZILHQT"},{"rt":1713,"response":"50","name":"rating","trial_type":"image-slider-response","trial_index":84,"time_elapsed":578655,"internal_node_id":"0.0-84.0","participant_id":"A8RDXT4ZILHQT"},{"rt":1268,"stimulus":"stimuli/47.jpg","button_pressed":"1","name":"emotionType","trial_type":"image-button-response","trial_index":85,"time_elapsed":579925,"internal_node_id":"0.0-85.0","participant_id":"A8RDXT4ZILHQT"},{"rt":5099,"responses":"{\"Q0\":\"our\"}","trial_type":"survey-text","trial_index":86,"time_elapsed":585025,"internal_node_id":"0.0-86.0-0.0","participant_id":"A8RDXT4ZILHQT"},{"rt":null,"stimulus":"<p style=\"font-size: 48px;\">+</p>","key_press":null,"Name":"fixation","trial_type":"html-keyboard-response","trial_index":87,"time_elapsed":586027,"internal_node_id":"0.0-87.0","participant_id":"A8RDXT4ZILHQT"},{"rt":null,"stimulus":"stimuli/37.jpg","button_pressed":null,"name":"noRating","trial_type":"image-button-response","trial_index":88,"time_elapsed":591029,"internal_node_id":"0.0-88.0","participant_id":"A8RDXT4ZILHQT"},{"rt":2495,"stimulus":"stimuli/37.jpg","button_pressed":"0","name":"valence","trial_type":"image-button-response","trial_index":89,"time_elapsed":593525,"internal_node_id":"0.0-89.0","participant_id":"A8RDXT4ZILHQT"},{"rt":1291,"response":"23","name":"rating","trial_type":"image-slider-response","trial_index":90,"time_elapsed":594818,"internal_node_id":"0.0-90.0","participant_id":"A8RDXT4ZILHQT"},{"rt":1394,"stimulus":"stimuli/37.jpg","button_pressed":"0","name":"emotionType","trial_type":"image-button-response","trial_index":91,"time_elapsed":596212,"internal_node_id":"0.0-91.0","participant_id":"A8RDXT4ZILHQT"},{"rt":null,"stimulus":"<p style=\"font-size: 48px;\">+</p>","key_press":null,"Name":"fixation","trial_type":"html-keyboard-response","trial_index":92,"time_elapsed":596714,"internal_node_id":"0.0-92.0","participant_id":"A8RDXT4ZILHQT"},{"rt":null,"stimulus":"stimuli/7.jpg","button_pressed":null,"name":"noRating","trial_type":"image-button-response","trial_index":93,"time_elapsed":601716,"internal_node_id":"0.0-93.0","participant_id":"A8RDXT4ZILHQT"},{"rt":4407,"stimulus":"stimuli/7.jpg","button_pressed":"0","name":"valence","trial_type":"image-button-response","trial_index":94,"time_elapsed":606124,"internal_node_id":"0.0-94.0","participant_id":"A8RDXT4ZILHQT"},{"rt":1769,"response":"27","name":"rating","trial_type":"image-slider-response","trial_index":95,"time_elapsed":607894,"internal_node_id":"0.0-95.0","participant_id":"A8RDXT4ZILHQT"},{"rt":929,"stimulus":"stimuli/7.jpg","button_pressed":"0","name":"emotionType","trial_type":"image-button-response","trial_index":96,"time_elapsed":608825,"internal_node_id":"0.0-96.0","participant_id":"A8RDXT4ZILHQT"},{"rt":null,"stimulus":"<p style=\"font-size: 48px;\">+</p>","key_press":null,"Name":"fixation","trial_type":"html-keyboard-response","trial_index":97,"time_elapsed":609327,"internal_node_id":"0.0-97.0","participant_id":"A8RDXT4ZILHQT"},{"rt":null,"stimulus":"stimuli/20.jpg","button_pressed":null,"name":"noRating","trial_type":"image-button-response","trial_index":98,"time_elapsed":614328,"internal_node_id":"0.0-98.0","participant_id":"A8RDXT4ZILHQT"},{"rt":2529,"stimulus":"stimuli/20.jpg","button_pressed":"0","name":"valence","trial_type":"image-button-response","trial_index":99,"time_elapsed":616859,"internal_node_id":"0.0-99.0","participant_id":"A8RDXT4ZILHQT"},{"rt":1969,"response":"33","name":"rating","trial_type":"image-slider-response","trial_index":100,"time_elapsed":618829,"internal_node_id":"0.0-100.0","participant_id":"A8RDXT4ZILHQT"},{"rt":839,"stimulus":"stimuli/20.jpg","button_pressed":"0","name":"emotionType","trial_type":"image-button-response","trial_index":101,"time_elapsed":619669,"internal_node_id":"0.0-101.0","participant_id":"A8RDXT4ZILHQT"},{"rt":null,"stimulus":"<p style=\"font-size: 48px;\">+</p>","key_press":null,"Name":"fixation","trial_type":"html-keyboard-response","trial_index":102,"time_elapsed":620672,"internal_node_id":"0.0-102.0","participant_id":"A8RDXT4ZILHQT"},{"rt":null,"stimulus":"stimuli/55.jpg","button_pressed":null,"name":"noRating","trial_type":"image-button-response","trial_index":103,"time_elapsed":625674,"internal_node_id":"0.0-103.0","participant_id":"A8RDXT4ZILHQT"},{"rt":5260,"stimulus":"stimuli/55.jpg","button_pressed":"0","name":"valence","trial_type":"image-button-response","trial_index":104,"time_elapsed":630934,"internal_node_id":"0.0-104.0","participant_id":"A8RDXT4ZILHQT"},{"rt":1833,"response":"32","name":"rating","trial_type":"image-slider-response","trial_index":105,"time_elapsed":632768,"internal_node_id":"0.0-105.0","participant_id":"A8RDXT4ZILHQT"},{"rt":948,"stimulus":"stimuli/55.jpg","button_pressed":"0","name":"emotionType","trial_type":"image-button-response","trial_index":106,"time_elapsed":633718,"internal_node_id":"0.0-106.0","participant_id":"A8RDXT4ZILHQT"},{"rt":null,"stimulus":"<p style=\"font-size: 48px;\">+</p>","key_press":null,"Name":"fixation","trial_type":"html-keyboard-response","trial_index":107,"time_elapsed":634220,"internal_node_id":"0.0-107.0","participant_id":"A8RDXT4ZILHQT"},{"rt":null,"stimulus":"stimuli/53.jpg","button_pressed":null,"name":"noRating","trial_type":"image-button-response","trial_index":108,"time_elapsed":639223,"internal_node_id":"0.0-108.0","participant_id":"A8RDXT4ZILHQT"},{"rt":11594,"stimulus":"stimuli/53.jpg","button_pressed":"0","name":"valence","trial_type":"image-button-response","trial_index":109,"time_elapsed":650817,"internal_node_id":"0.0-109.0","participant_id":"A8RDXT4ZILHQT"},{"rt":1893,"response":"34","name":"rating","trial_type":"image-slider-response","trial_index":110,"time_elapsed":652711,"internal_node_id":"0.0-110.0","participant_id":"A8RDXT4ZILHQT"},{"rt":590,"stimulus":"stimuli/53.jpg","button_pressed":"0","name":"emotionType","trial_type":"image-button-response","trial_index":111,"time_elapsed":653301,"internal_node_id":"0.0-111.0","participant_id":"A8RDXT4ZILHQT"},{"rt":5115,"responses":"{\"Q0\":\"course\"}","trial_type":"survey-text","trial_index":112,"time_elapsed":658417,"internal_node_id":"0.0-112.0-0.0","participant_id":"A8RDXT4ZILHQT"},{"rt":null,"stimulus":"<p style=\"font-size: 48px;\">+</p>","key_press":null,"Name":"fixation","trial_type":"html-keyboard-response","trial_index":113,"time_elapsed":659419,"internal_node_id":"0.0-113.0","participant_id":"A8RDXT4ZILHQT"},{"rt":null,"stimulus":"stimuli/40.jpg","button_pressed":null,"name":"noRating","trial_type":"image-button-response","trial_index":114,"time_elapsed":664422,"internal_node_id":"0.0-114.0","participant_id":"A8RDXT4ZILHQT"},{"rt":2323,"stimulus":"stimuli/40.jpg","button_pressed":"0","name":"valence","trial_type":"image-button-response","trial_index":115,"time_elapsed":666745,"internal_node_id":"0.0-115.0","participant_id":"A8RDXT4ZILHQT"},{"rt":1782,"response":"25","name":"rating","trial_type":"image-slider-response","trial_index":116,"time_elapsed":668528,"internal_node_id":"0.0-116.0","participant_id":"A8RDXT4ZILHQT"},{"rt":1391,"stimulus":"stimuli/40.jpg","button_pressed":"0","name":"emotionType","trial_type":"image-button-response","trial_index":117,"time_elapsed":669921,"internal_node_id":"0.0-117.0","participant_id":"A8RDXT4ZILHQT"},{"rt":null,"stimulus":"<p style=\"font-size: 48px;\">+</p>","key_press":null,"Name":"fixation","trial_type":"html-keyboard-response","trial_index":118,"time_elapsed":670422,"internal_node_id":"0.0-118.0","participant_id":"A8RDXT4ZILHQT"},{"rt":null,"stimulus":"stimuli/22.jpg","button_pressed":null,"name":"noRating","trial_type":"image-button-response","trial_index":119,"time_elapsed":675424,"internal_node_id":"0.0-119.0","participant_id":"A8RDXT4ZILHQT"},{"rt":1570,"stimulus":"stimuli/22.jpg","button_pressed":"0","name":"valence","trial_type":"image-button-response","trial_index":120,"time_elapsed":676995,"internal_node_id":"0.0-120.0","participant_id":"A8RDXT4ZILHQT"},{"rt":2113,"response":"34","name":"rating","trial_type":"image-slider-response","trial_index":121,"time_elapsed":679109,"internal_node_id":"0.0-121.0","participant_id":"A8RDXT4ZILHQT"},{"rt":583,"stimulus":"stimuli/22.jpg","button_pressed":"0","name":"emotionType","trial_type":"image-button-response","trial_index":122,"time_elapsed":679693,"internal_node_id":"0.0-122.0","participant_id":"A8RDXT4ZILHQT"},{"rt":null,"stimulus":"<p style=\"font-size: 48px;\">+</p>","key_press":null,"Name":"fixation","trial_type":"html-keyboard-response","trial_index":123,"time_elapsed":680696,"internal_node_id":"0.0-123.0","participant_id":"A8RDXT4ZILHQT"},{"rt":null,"stimulus":"stimuli/48.jpg","button_pressed":null,"name":"noRating","trial_type":"image-button-response","trial_index":124,"time_elapsed":685697,"internal_node_id":"0.0-124.0","participant_id":"A8RDXT4ZILHQT"},{"rt":1097,"stimulus":"stimuli/48.jpg","button_pressed":"0","name":"valence","trial_type":"image-button-response","trial_index":125,"time_elapsed":686795,"internal_node_id":"0.0-125.0","participant_id":"A8RDXT4ZILHQT"},{"rt":1760,"response":"50","name":"rating","trial_type":"image-slider-response","trial_index":126,"time_elapsed":688556,"internal_node_id":"0.0-126.0","participant_id":"A8RDXT4ZILHQT"},{"rt":1410,"stimulus":"stimuli/48.jpg","button_pressed":"0","name":"emotionType","trial_type":"image-button-response","trial_index":127,"time_elapsed":689967,"internal_node_id":"0.0-127.0","participant_id":"A8RDXT4ZILHQT"},{"rt":null,"stimulus":"<p style=\"font-size: 48px;\">+</p>","key_press":null,"Name":"fixation","trial_type":"html-keyboard-response","trial_index":128,"time_elapsed":690969,"internal_node_id":"0.0-128.0","participant_id":"A8RDXT4ZILHQT"},{"rt":null,"stimulus":"stimuli/61.jpg","button_pressed":null,"name":"noRating","trial_type":"image-button-response","trial_index":129,"time_elapsed":695972,"internal_node_id":"0.0-129.0","participant_id":"A8RDXT4ZILHQT"},{"rt":6305,"stimulus":"stimuli/61.jpg","button_pressed":"0","name":"valence","trial_type":"image-button-response","trial_index":130,"time_elapsed":702279,"internal_node_id":"0.0-130.0","participant_id":"A8RDXT4ZILHQT"},{"rt":1379,"response":"55","name":"rating","trial_type":"image-slider-response","trial_index":131,"time_elapsed":703658,"internal_node_id":"0.0-131.0","participant_id":"A8RDXT4ZILHQT"},{"rt":696,"stimulus":"stimuli/61.jpg","button_pressed":"0","name":"emotionType","trial_type":"image-button-response","trial_index":132,"time_elapsed":704354,"internal_node_id":"0.0-132.0","participant_id":"A8RDXT4ZILHQT"},{"rt":null,"stimulus":"<p style=\"font-size: 48px;\">+</p>","key_press":null,"Name":"fixation","trial_type":"html-keyboard-response","trial_index":133,"time_elapsed":704855,"internal_node_id":"0.0-133.0","participant_id":"A8RDXT4ZILHQT"},{"rt":null,"stimulus":"stimuli/34.jpg","button_pressed":null,"name":"noRating","trial_type":"image-button-response","trial_index":134,"time_elapsed":709859,"internal_node_id":"0.0-134.0","participant_id":"A8RDXT4ZILHQT"},{"rt":977,"stimulus":"stimuli/34.jpg","button_pressed":"0","name":"valence","trial_type":"image-button-response","trial_index":135,"time_elapsed":710837,"internal_node_id":"0.0-135.0","participant_id":"A8RDXT4ZILHQT"},{"rt":1404,"response":"44","name":"rating","trial_type":"image-slider-response","trial_index":136,"time_elapsed":712242,"internal_node_id":"0.0-136.0","participant_id":"A8RDXT4ZILHQT"},{"rt":795,"stimulus":"stimuli/34.jpg","button_pressed":"0","name":"emotionType","trial_type":"image-button-response","trial_index":137,"time_elapsed":713038,"internal_node_id":"0.0-137.0","participant_id":"A8RDXT4ZILHQT"},{"rt":5575,"responses":"{\"Q0\":\"we\"}","trial_type":"survey-text","trial_index":138,"time_elapsed":718614,"internal_node_id":"0.0-138.0-0.0","participant_id":"A8RDXT4ZILHQT"},{"rt":null,"stimulus":"<p style=\"font-size: 48px;\">+</p>","key_press":null,"Name":"fixation","trial_type":"html-keyboard-response","trial_index":139,"time_elapsed":719116,"internal_node_id":"0.0-139.0","participant_id":"A8RDXT4ZILHQT"},{"rt":null,"stimulus":"stimuli/35.jpg","button_pressed":null,"name":"noRating","trial_type":"image-button-response","trial_index":140,"time_elapsed":724118,"internal_node_id":"0.0-140.0","participant_id":"A8RDXT4ZILHQT"},{"rt":3173,"stimulus":"stimuli/35.jpg","button_pressed":"0","name":"valence","trial_type":"image-button-response","trial_index":141,"time_elapsed":727292,"internal_node_id":"0.0-141.0","participant_id":"A8RDXT4ZILHQT"},{"rt":2681,"response":"34","name":"rating","trial_type":"image-slider-response","trial_index":142,"time_elapsed":729974,"internal_node_id":"0.0-142.0","participant_id":"A8RDXT4ZILHQT"},{"rt":1055,"stimulus":"stimuli/35.jpg","button_pressed":"0","name":"emotionType","trial_type":"image-button-response","trial_index":143,"time_elapsed":731030,"internal_node_id":"0.0-143.0","participant_id":"A8RDXT4ZILHQT"},{"rt":null,"stimulus":"<p style=\"font-size: 48px;\">+</p>","key_press":null,"Name":"fixation","trial_type":"html-keyboard-response","trial_index":144,"time_elapsed":731531,"internal_node_id":"0.0-144.0","participant_id":"A8RDXT4ZILHQT"},{"rt":null,"stimulus":"stimuli/71.jpg","button_pressed":null,"name":"noRating","trial_type":"image-button-response","trial_index":145,"time_elapsed":736532,"internal_node_id":"0.0-145.0","participant_id":"A8RDXT4ZILHQT"},{"rt":4612,"stimulus":"stimuli/71.jpg","button_pressed":"0","name":"valence","trial_type":"image-button-response","trial_index":146,"time_elapsed":741146,"internal_node_id":"0.0-146.0","participant_id":"A8RDXT4ZILHQT"},{"rt":1716,"response":"30","name":"rating","trial_type":"image-slider-response","trial_index":147,"time_elapsed":742863,"internal_node_id":"0.0-147.0","participant_id":"A8RDXT4ZILHQT"},{"rt":11769,"stimulus":"stimuli/71.jpg","button_pressed":"0","name":"emotionType","trial_type":"image-button-response","trial_index":148,"time_elapsed":754633,"internal_node_id":"0.0-148.0","participant_id":"A8RDXT4ZILHQT"},{"rt":null,"stimulus":"<p style=\"font-size: 48px;\">+</p>","key_press":null,"Name":"fixation","trial_type":"html-keyboard-response","trial_index":149,"time_elapsed":755636,"internal_node_id":"0.0-149.0","participant_id":"A8RDXT4ZILHQT"},{"rt":null,"stimulus":"stimuli/50.jpg","button_pressed":null,"name":"noRating","trial_type":"image-button-response","trial_index":150,"time_elapsed":760638,"internal_node_id":"0.0-150.0","participant_id":"A8RDXT4ZILHQT"},{"rt":1041,"stimulus":"stimuli/50.jpg","button_pressed":"0","name":"valence","trial_type":"image-button-response","trial_index":151,"time_elapsed":761680,"internal_node_id":"0.0-151.0","participant_id":"A8RDXT4ZILHQT"},{"rt":1373,"response":"23","name":"rating","trial_type":"image-slider-response","trial_index":152,"time_elapsed":763054,"internal_node_id":"0.0-152.0","participant_id":"A8RDXT4ZILHQT"},{"rt":1442,"stimulus":"stimuli/50.jpg","button_pressed":"0","name":"emotionType","trial_type":"image-button-response","trial_index":153,"time_elapsed":764498,"internal_node_id":"0.0-153.0","participant_id":"A8RDXT4ZILHQT"},{"rt":null,"stimulus":"<p style=\"font-size: 48px;\">+</p>","key_press":null,"Name":"fixation","trial_type":"html-keyboard-response","trial_index":154,"time_elapsed":766001,"internal_node_id":"0.0-154.0","participant_id":"A8RDXT4ZILHQT"},{"rt":null,"stimulus":"stimuli/27.jpg","button_pressed":null,"name":"noRating","trial_type":"image-button-response","trial_index":155,"time_elapsed":771003,"internal_node_id":"0.0-155.0","participant_id":"A8RDXT4ZILHQT"},{"rt":2629,"stimulus":"stimuli/27.jpg","button_pressed":"0","name":"valence","trial_type":"image-button-response","trial_index":156,"time_elapsed":773634,"internal_node_id":"0.0-156.0","participant_id":"A8RDXT4ZILHQT"},{"rt":2575,"response":"42","name":"rating","trial_type":"image-slider-response","trial_index":157,"time_elapsed":776211,"internal_node_id":"0.0-157.0","participant_id":"A8RDXT4ZILHQT"},{"rt":1091,"stimulus":"stimuli/27.jpg","button_pressed":"0","name":"emotionType","trial_type":"image-button-response","trial_index":158,"time_elapsed":777302,"internal_node_id":"0.0-158.0","participant_id":"A8RDXT4ZILHQT"},{"rt":null,"stimulus":"<p style=\"font-size: 48px;\">+</p>","key_press":null,"Name":"fixation","trial_type":"html-keyboard-response","trial_index":159,"time_elapsed":777804,"internal_node_id":"0.0-159.0","participant_id":"A8RDXT4ZILHQT"},{"rt":null,"stimulus":"stimuli/66.jpg","button_pressed":null,"name":"noRating","trial_type":"image-button-response","trial_index":160,"time_elapsed":782806,"internal_node_id":"0.0-160.0","participant_id":"A8RDXT4ZILHQT"},{"rt":5796,"stimulus":"stimuli/66.jpg","button_pressed":"0","name":"valence","trial_type":"image-button-response","trial_index":161,"time_elapsed":788604,"internal_node_id":"0.0-161.0","participant_id":"A8RDXT4ZILHQT"},{"rt":1582,"response":"42","name":"rating","trial_type":"image-slider-response","trial_index":162,"time_elapsed":790187,"internal_node_id":"0.0-162.0","participant_id":"A8RDXT4ZILHQT"},{"rt":879,"stimulus":"stimuli/66.jpg","button_pressed":"0","name":"emotionType","trial_type":"image-button-response","trial_index":163,"time_elapsed":791067,"internal_node_id":"0.0-163.0","participant_id":"A8RDXT4ZILHQT"},{"rt":1743,"stimulus":"stimuli/ins/Slide8.JPG","button_pressed":"0","trial_type":"image-button-response","trial_index":164,"time_elapsed":792811,"internal_node_id":"0.0-164.0","participant_id":"A8RDXT4ZILHQT"}]