[{"rt":10463,"responses":"{\"Q0\":\"AA4O2W236E3FW\"}","trial_type":"survey-text","trial_index":0,"time_elapsed":10468,"internal_node_id":"0.0-0.0-0.0","participant_id":"AA4O2W236E3FW"},{"rt":6944,"stimulus":"stimuli/ins/Slide1.JPG","button_pressed":"0","Name":"instructions","trial_type":"image-button-response","trial_index":1,"time_elapsed":17416,"internal_node_id":"0.0-1.0","participant_id":"AA4O2W236E3FW"},{"rt":6579,"stimulus":"stimuli/ins/Slide2.JPG","button_pressed":"0","Name":"instructions","trial_type":"image-button-response","trial_index":2,"time_elapsed":23997,"internal_node_id":"0.0-2.0","participant_id":"AA4O2W236E3FW"},{"rt":4249,"stimulus":"stimuli/ins/Slide3.JPG","button_pressed":"0","Name":"instructions","trial_type":"image-button-response","trial_index":3,"time_elapsed":28248,"internal_node_id":"0.0-3.0","participant_id":"AA4O2W236E3FW"},{"rt":4369,"stimulus":"stimuli/ins/Slide4.JPG","button_pressed":"0","Name":"instructions","trial_type":"image-button-response","trial_index":4,"time_elapsed":32618,"internal_node_id":"0.0-4.0","participant_id":"AA4O2W236E3FW"},{"rt":4835,"stimulus":"stimuli/ins/Slide5.JPG","button_pressed":"0","Name":"instructions","trial_type":"image-button-response","trial_index":5,"time_elapsed":37454,"internal_node_id":"0.0-5.0","participant_id":"AA4O2W236E3FW"},{"rt":3778,"stimulus":"stimuli/ins/Slide6.JPG","button_pressed":"0","Name":"instructions","trial_type":"image-button-response","trial_index":6,"time_elapsed":41234,"internal_node_id":"0.0-6.0","participant_id":"AA4O2W236E3FW"},{"rt":1494,"stimulus":"stimuli/ins/Slide7.JPG","button_pressed":"0","Name":"instructions","trial_type":"image-button-response","trial_index":7,"time_elapsed":42729,"internal_node_id":"0.0-7.0","participant_id":"AA4O2W236E3FW"},{"rt":7257,"responses":"{\"Q0\":\"but\"}","trial_type":"survey-text","trial_index":8,"time_elapsed":49989,"internal_node_id":"0.0-8.0-0.0","participant_id":"AA4O2W236E3FW"},{"rt":null,"stimulus":"<p style=\"font-size: 48px;\">+</p>","key_press":null,"Name":"fixation","trial_type":"html-keyboard-response","trial_index":9,"time_elapsed":50493,"internal_node_id":"0.0-9.0","participant_id":"AA4O2W236E3FW"},{"rt":null,"stimulus":"stimuli/20.jpg","button_pressed":null,"name":"noRating","trial_type":"image-button-response","trial_index":10,"time_elapsed":55496,"internal_node_id":"0.0-10.0","participant_id":"AA4O2W236E3FW"},{"rt":2995,"stimulus":"stimuli/20.jpg","button_pressed":"2","name":"valence","trial_type":"image-button-response","trial_index":11,"time_elapsed":58493,"internal_node_id":"0.0-11.0","participant_id":"AA4O2W236E3FW"},{"rt":2937,"response":"48","name":"rating","trial_type":"image-slider-response","trial_index":12,"time_elapsed":61434,"internal_node_id":"0.0-12.0","participant_id":"AA4O2W236E3FW"},{"rt":9186,"stimulus":"stimuli/20.jpg","button_pressed":"0","name":"emotionType","trial_type":"image-button-response","trial_index":13,"time_elapsed":70623,"internal_node_id":"0.0-13.0","participant_id":"AA4O2W236E3FW"},{"rt":null,"stimulus":"<p style=\"font-size: 48px;\">+</p>","key_press":null,"Name":"fixation","trial_type":"html-keyboard-response","trial_index":14,"time_elapsed":71626,"internal_node_id":"0.0-14.0","participant_id":"AA4O2W236E3FW"},{"rt":null,"stimulus":"stimuli/32.jpg","button_pressed":null,"name":"noRating","trial_type":"image-button-response","trial_index":15,"time_elapsed":76628,"internal_node_id":"0.0-15.0","participant_id":"AA4O2W236E3FW"},{"rt":1334,"stimulus":"stimuli/32.jpg","button_pressed":"0","name":"valence","trial_type":"image-button-response","trial_index":16,"time_elapsed":77964,"internal_node_id":"0.0-16.0","participant_id":"AA4O2W236E3FW"},{"rt":5334,"response":"59","name":"rating","trial_type":"image-slider-response","trial_index":17,"time_elapsed":83301,"internal_node_id":"0.0-17.0","participant_id":"AA4O2W236E3FW"},{"rt":1325,"stimulus":"stimuli/32.jpg","button_pressed":"0","name":"emotionType","trial_type":"image-button-response","trial_index":18,"time_elapsed":84629,"internal_node_id":"0.0-18.0","participant_id":"AA4O2W236E3FW"},{"rt":null,"stimulus":"<p style=\"font-size: 48px;\">+</p>","key_press":null,"Name":"fixation","trial_type":"html-keyboard-response","trial_index":19,"time_elapsed":86130,"internal_node_id":"0.0-19.0","participant_id":"AA4O2W236E3FW"},{"rt":null,"stimulus":"stimuli/22.jpg","button_pressed":null,"name":"noRating","trial_type":"image-button-response","trial_index":20,"time_elapsed":91132,"internal_node_id":"0.0-20.0","participant_id":"AA4O2W236E3FW"},{"rt":1524,"stimulus":"stimuli/22.jpg","button_pressed":"0","name":"valence","trial_type":"image-button-response","trial_index":21,"time_elapsed":92658,"internal_node_id":"0.0-21.0","participant_id":"AA4O2W236E3FW"},{"rt":2647,"response":"47","name":"rating","trial_type":"image-slider-response","trial_index":22,"time_elapsed":95308,"internal_node_id":"0.0-22.0","participant_id":"AA4O2W236E3FW"},{"rt":2040,"stimulus":"stimuli/22.jpg","button_pressed":"0","name":"emotionType","trial_type":"image-button-response","trial_index":23,"time_elapsed":97349,"internal_node_id":"0.0-23.0","participant_id":"AA4O2W236E3FW"},{"rt":null,"stimulus":"<p style=\"font-size: 48px;\">+</p>","key_press":null,"Name":"fixation","trial_type":"html-keyboard-response","trial_index":24,"time_elapsed":98851,"internal_node_id":"0.0-24.0","participant_id":"AA4O2W236E3FW"},{"rt":null,"stimulus":"stimuli/15.jpg","button_pressed":null,"name":"noRating","trial_type":"image-button-response","trial_index":25,"time_elapsed":103852,"internal_node_id":"0.0-25.0","participant_id":"AA4O2W236E3FW"},{"rt":1640,"stimulus":"stimuli/15.jpg","button_pressed":"2","name":"valence","trial_type":"image-button-response","trial_index":26,"time_elapsed":105494,"internal_node_id":"0.0-26.0","participant_id":"AA4O2W236E3FW"},{"rt":3128,"response":"56","name":"rating","trial_type":"image-slider-response","trial_index":27,"time_elapsed":108624,"internal_node_id":"0.0-27.0","participant_id":"AA4O2W236E3FW"},{"rt":3666,"stimulus":"stimuli/15.jpg","button_pressed":"0","name":"emotionType","trial_type":"image-button-response","trial_index":28,"time_elapsed":112293,"internal_node_id":"0.0-28.0","participant_id":"AA4O2W236E3FW"},{"rt":null,"stimulus":"<p style=\"font-size: 48px;\">+</p>","key_press":null,"Name":"fixation","trial_type":"html-keyboard-response","trial_index":29,"time_elapsed":113294,"internal_node_id":"0.0-29.0","participant_id":"AA4O2W236E3FW"},{"rt":null,"stimulus":"stimuli/30.jpg","button_pressed":null,"name":"noRating","trial_type":"image-button-response","trial_index":30,"time_elapsed":118296,"internal_node_id":"0.0-30.0","participant_id":"AA4O2W236E3FW"},{"rt":1554,"stimulus":"stimuli/30.jpg","button_pressed":"2","name":"valence","trial_type":"image-button-response","trial_index":31,"time_elapsed":119852,"internal_node_id":"0.0-31.0","participant_id":"AA4O2W236E3FW"},{"rt":2511,"response":"48","name":"rating","trial_type":"image-slider-response","trial_index":32,"time_elapsed":122367,"internal_node_id":"0.0-32.0","participant_id":"AA4O2W236E3FW"},{"rt":1492,"stimulus":"stimuli/30.jpg","button_pressed":"0","name":"emotionType","trial_type":"image-button-response","trial_index":33,"time_elapsed":123861,"internal_node_id":"0.0-33.0","participant_id":"AA4O2W236E3FW"},{"rt":6363,"responses":"{\"Q0\":\"rock\"}","trial_type":"survey-text","trial_index":34,"time_elapsed":130226,"internal_node_id":"0.0-34.0-0.0","participant_id":"AA4O2W236E3FW"},{"rt":null,"stimulus":"<p style=\"font-size: 48px;\">+</p>","key_press":null,"Name":"fixation","trial_type":"html-keyboard-response","trial_index":35,"time_elapsed":131228,"internal_node_id":"0.0-35.0","participant_id":"AA4O2W236E3FW"},{"rt":null,"stimulus":"stimuli/13.jpg","button_pressed":null,"name":"noRating","trial_type":"image-button-response","trial_index":36,"time_elapsed":136230,"internal_node_id":"0.0-36.0","participant_id":"AA4O2W236E3FW"},{"rt":1590,"stimulus":"stimuli/13.jpg","button_pressed":"2","name":"valence","trial_type":"image-button-response","trial_index":37,"time_elapsed":137822,"internal_node_id":"0.0-37.0","participant_id":"AA4O2W236E3FW"},{"rt":3093,"response":"41","name":"rating","trial_type":"image-slider-response","trial_index":38,"time_elapsed":140918,"internal_node_id":"0.0-38.0","participant_id":"AA4O2W236E3FW"},{"rt":3063,"stimulus":"stimuli/13.jpg","button_pressed":"2","name":"emotionType","trial_type":"image-button-response","trial_index":39,"time_elapsed":143984,"internal_node_id":"0.0-39.0","participant_id":"AA4O2W236E3FW"},{"rt":null,"stimulus":"<p style=\"font-size: 48px;\">+</p>","key_press":null,"Name":"fixation","trial_type":"html-keyboard-response","trial_index":40,"time_elapsed":144986,"internal_node_id":"0.0-40.0","participant_id":"AA4O2W236E3FW"},{"rt":null,"stimulus":"stimuli/62.jpg","button_pressed":null,"name":"noRating","trial_type":"image-button-response","trial_index":41,"time_elapsed":149987,"internal_node_id":"0.0-41.0","participant_id":"AA4O2W236E3FW"},{"rt":1510,"stimulus":"stimuli/62.jpg","button_pressed":"0","name":"valence","trial_type":"image-button-response","trial_index":42,"time_elapsed":151501,"internal_node_id":"0.0-42.0","participant_id":"AA4O2W236E3FW"},{"rt":3218,"response":"52","name":"rating","trial_type":"image-slider-response","trial_index":43,"time_elapsed":154722,"internal_node_id":"0.0-43.0","participant_id":"AA4O2W236E3FW"},{"rt":1146,"stimulus":"stimuli/62.jpg","button_pressed":"0","name":"emotionType","trial_type":"image-button-response","trial_index":44,"time_elapsed":155870,"internal_node_id":"0.0-44.0","participant_id":"AA4O2W236E3FW"},{"rt":null,"stimulus":"<p style=\"font-size: 48px;\">+</p>","key_press":null,"Name":"fixation","trial_type":"html-keyboard-response","trial_index":45,"time_elapsed":156371,"internal_node_id":"0.0-45.0","participant_id":"AA4O2W236E3FW"},{"rt":null,"stimulus":"stimuli/59.jpg","button_pressed":null,"name":"noRating","trial_type":"image-button-response","trial_index":46,"time_elapsed":161373,"internal_node_id":"0.0-46.0","participant_id":"AA4O2W236E3FW"},{"rt":1991,"stimulus":"stimuli/59.jpg","button_pressed":"0","name":"valence","trial_type":"image-button-response","trial_index":47,"time_elapsed":163366,"internal_node_id":"0.0-47.0","participant_id":"AA4O2W236E3FW"},{"rt":2474,"response":"31","name":"rating","trial_type":"image-slider-response","trial_index":48,"time_elapsed":165844,"internal_node_id":"0.0-48.0","participant_id":"AA4O2W236E3FW"},{"rt":3487,"stimulus":"stimuli/59.jpg","button_pressed":"2","name":"emotionType","trial_type":"image-button-response","trial_index":49,"time_elapsed":169334,"internal_node_id":"0.0-49.0","participant_id":"AA4O2W236E3FW"},{"rt":null,"stimulus":"<p style=\"font-size: 48px;\">+</p>","key_press":null,"Name":"fixation","trial_type":"html-keyboard-response","trial_index":50,"time_elapsed":169835,"internal_node_id":"0.0-50.0","participant_id":"AA4O2W236E3FW"},{"rt":null,"stimulus":"stimuli/12.jpg","button_pressed":null,"name":"noRating","trial_type":"image-button-response","trial_index":51,"time_elapsed":174836,"internal_node_id":"0.0-51.0","participant_id":"AA4O2W236E3FW"},{"rt":1388,"stimulus":"stimuli/12.jpg","button_pressed":"2","name":"valence","trial_type":"image-button-response","trial_index":52,"time_elapsed":176226,"internal_node_id":"0.0-52.0","participant_id":"AA4O2W236E3FW"},{"rt":1619,"response":"0","name":"rating","trial_type":"image-slider-response","trial_index":53,"time_elapsed":177848,"internal_node_id":"0.0-53.0","participant_id":"AA4O2W236E3FW"},{"rt":2282,"stimulus":"stimuli/12.jpg","button_pressed":"2","name":"emotionType","trial_type":"image-button-response","trial_index":54,"time_elapsed":182364,"internal_node_id":"0.0-54.0","participant_id":"AA4O2W236E3FW"},{"rt":null,"stimulus":"<p style=\"font-size: 48px;\">+</p>","key_press":null,"Name":"fixation","trial_type":"html-keyboard-response","trial_index":55,"time_elapsed":182866,"internal_node_id":"0.0-55.0","participant_id":"AA4O2W236E3FW"},{"rt":null,"stimulus":"stimuli/6.jpg","button_pressed":null,"name":"noRating","trial_type":"image-button-response","trial_index":56,"time_elapsed":187867,"internal_node_id":"0.0-56.0","participant_id":"AA4O2W236E3FW"},{"rt":2046,"stimulus":"stimuli/6.jpg","button_pressed":"2","name":"valence","trial_type":"image-button-response","trial_index":57,"time_elapsed":189916,"internal_node_id":"0.0-57.0","participant_id":"AA4O2W236E3FW"},{"rt":4567,"response":"55","name":"rating","trial_type":"image-slider-response","trial_index":58,"time_elapsed":194486,"internal_node_id":"0.0-58.0","participant_id":"AA4O2W236E3FW"},{"rt":1195,"stimulus":"stimuli/6.jpg","button_pressed":"0","name":"emotionType","trial_type":"image-button-response","trial_index":59,"time_elapsed":195684,"internal_node_id":"0.0-59.0","participant_id":"AA4O2W236E3FW"},{"rt":4805,"responses":"{\"Q0\":\"sky\"}","trial_type":"survey-text","trial_index":60,"time_elapsed":200490,"internal_node_id":"0.0-60.0-0.0","participant_id":"AA4O2W236E3FW"},{"rt":null,"stimulus":"<p style=\"font-size: 48px;\">+</p>","key_press":null,"Name":"fixation","trial_type":"html-keyboard-response","trial_index":61,"time_elapsed":201492,"internal_node_id":"0.0-61.0","participant_id":"AA4O2W236E3FW"},{"rt":null,"stimulus":"stimuli/54.jpg","button_pressed":null,"name":"noRating","trial_type":"image-button-response","trial_index":62,"time_elapsed":206494,"internal_node_id":"0.0-62.0","participant_id":"AA4O2W236E3FW"},{"rt":1848,"stimulus":"stimuli/54.jpg","button_pressed":"0","name":"valence","trial_type":"image-button-response","trial_index":63,"time_elapsed":208343,"internal_node_id":"0.0-63.0","participant_id":"AA4O2W236E3FW"},{"rt":3659,"response":"79","name":"rating","trial_type":"image-slider-response","trial_index":64,"time_elapsed":212004,"internal_node_id":"0.0-64.0","participant_id":"AA4O2W236E3FW"},{"rt":2410,"stimulus":"stimuli/54.jpg","button_pressed":"0","name":"emotionType","trial_type":"image-button-response","trial_index":65,"time_elapsed":214417,"internal_node_id":"0.0-65.0","participant_id":"AA4O2W236E3FW"},{"rt":null,"stimulus":"<p style=\"font-size: 48px;\">+</p>","key_press":null,"Name":"fixation","trial_type":"html-keyboard-response","trial_index":66,"time_elapsed":215918,"internal_node_id":"0.0-66.0","participant_id":"AA4O2W236E3FW"},{"rt":null,"stimulus":"stimuli/71.jpg","button_pressed":null,"name":"noRating","trial_type":"image-button-response","trial_index":67,"time_elapsed":220919,"internal_node_id":"0.0-67.0","participant_id":"AA4O2W236E3FW"},{"rt":1281,"stimulus":"stimuli/71.jpg","button_pressed":"2","name":"valence","trial_type":"image-button-response","trial_index":68,"time_elapsed":222203,"internal_node_id":"0.0-68.0","participant_id":"AA4O2W236E3FW"},{"rt":3961,"response":"42","name":"rating","trial_type":"image-slider-response","trial_index":69,"time_elapsed":226166,"internal_node_id":"0.0-69.0","participant_id":"AA4O2W236E3FW"},{"rt":2402,"stimulus":"stimuli/71.jpg","button_pressed":"0","name":"emotionType","trial_type":"image-button-response","trial_index":70,"time_elapsed":228570,"internal_node_id":"0.0-70.0","participant_id":"AA4O2W236E3FW"},{"rt":null,"stimulus":"<p style=\"font-size: 48px;\">+</p>","key_press":null,"Name":"fixation","trial_type":"html-keyboard-response","trial_index":71,"time_elapsed":230072,"internal_node_id":"0.0-71.0","participant_id":"AA4O2W236E3FW"},{"rt":null,"stimulus":"stimuli/34.jpg","button_pressed":null,"name":"noRating","trial_type":"image-button-response","trial_index":72,"time_elapsed":235073,"internal_node_id":"0.0-72.0","participant_id":"AA4O2W236E3FW"},{"rt":3066,"stimulus":"stimuli/34.jpg","button_pressed":"2","name":"valence","trial_type":"image-button-response","trial_index":73,"time_elapsed":238141,"internal_node_id":"0.0-73.0","participant_id":"AA4O2W236E3FW"},{"rt":2333,"response":"52","name":"rating","trial_type":"image-slider-response","trial_index":74,"time_elapsed":240477,"internal_node_id":"0.0-74.0","participant_id":"AA4O2W236E3FW"},{"rt":3137,"stimulus":"stimuli/34.jpg","button_pressed":"2","name":"emotionType","trial_type":"image-button-response","trial_index":75,"time_elapsed":243617,"internal_node_id":"0.0-75.0","participant_id":"AA4O2W236E3FW"},{"rt":null,"stimulus":"<p style=\"font-size: 48px;\">+</p>","key_press":null,"Name":"fixation","trial_type":"html-keyboard-response","trial_index":76,"time_elapsed":245119,"internal_node_id":"0.0-76.0","participant_id":"AA4O2W236E3FW"},{"rt":null,"stimulus":"stimuli/8.jpg","button_pressed":null,"name":"noRating","trial_type":"image-button-response","trial_index":77,"time_elapsed":250120,"internal_node_id":"0.0-77.0","participant_id":"AA4O2W236E3FW"},{"rt":2526,"stimulus":"stimuli/8.jpg","button_pressed":"0","name":"valence","trial_type":"image-button-response","trial_index":78,"time_elapsed":252649,"internal_node_id":"0.0-78.0","participant_id":"AA4O2W236E3FW"},{"rt":3785,"response":"38","name":"rating","trial_type":"image-slider-response","trial_index":79,"time_elapsed":256436,"internal_node_id":"0.0-79.0","participant_id":"AA4O2W236E3FW"},{"rt":2640,"stimulus":"stimuli/8.jpg","button_pressed":"2","name":"emotionType","trial_type":"image-button-response","trial_index":80,"time_elapsed":259079,"internal_node_id":"0.0-80.0","participant_id":"AA4O2W236E3FW"},{"rt":null,"stimulus":"<p style=\"font-size: 48px;\">+</p>","key_press":null,"Name":"fixation","trial_type":"html-keyboard-response","trial_index":81,"time_elapsed":260580,"internal_node_id":"0.0-81.0","participant_id":"AA4O2W236E3FW"},{"rt":null,"stimulus":"stimuli/28.jpg","button_pressed":null,"name":"noRating","trial_type":"image-button-response","trial_index":82,"time_elapsed":265582,"internal_node_id":"0.0-82.0","participant_id":"AA4O2W236E3FW"},{"rt":2784,"stimulus":"stimuli/28.jpg","button_pressed":"0","name":"valence","trial_type":"image-button-response","trial_index":83,"time_elapsed":268368,"internal_node_id":"0.0-83.0","participant_id":"AA4O2W236E3FW"},{"rt":2208,"response":"50","name":"rating","trial_type":"image-slider-response","trial_index":84,"time_elapsed":270579,"internal_node_id":"0.0-84.0","participant_id":"AA4O2W236E3FW"},{"rt":2416,"stimulus":"stimuli/28.jpg","button_pressed":"0","name":"emotionType","trial_type":"image-button-response","trial_index":85,"time_elapsed":272997,"internal_node_id":"0.0-85.0","participant_id":"AA4O2W236E3FW"},{"rt":6200,"responses":"{\"Q0\":\"our\"}","trial_type":"survey-text","trial_index":86,"time_elapsed":279199,"internal_node_id":"0.0-86.0-0.0","participant_id":"AA4O2W236E3FW"},{"rt":null,"stimulus":"<p style=\"font-size: 48px;\">+</p>","key_press":null,"Name":"fixation","trial_type":"html-keyboard-response","trial_index":87,"time_elapsed":280701,"internal_node_id":"0.0-87.0","participant_id":"AA4O2W236E3FW"},{"rt":null,"stimulus":"stimuli/68.jpg","button_pressed":null,"name":"noRating","trial_type":"image-button-response","trial_index":88,"time_elapsed":285702,"internal_node_id":"0.0-88.0","participant_id":"AA4O2W236E3FW"},{"rt":2296,"stimulus":"stimuli/68.jpg","button_pressed":"2","name":"valence","trial_type":"image-button-response","trial_index":89,"time_elapsed":288001,"internal_node_id":"0.0-89.0","participant_id":"AA4O2W236E3FW"},{"rt":3451,"response":"37","name":"rating","trial_type":"image-slider-response","trial_index":90,"time_elapsed":291455,"internal_node_id":"0.0-90.0","participant_id":"AA4O2W236E3FW"},{"rt":1603,"stimulus":"stimuli/68.jpg","button_pressed":"2","name":"emotionType","trial_type":"image-button-response","trial_index":91,"time_elapsed":293060,"internal_node_id":"0.0-91.0","participant_id":"AA4O2W236E3FW"},{"rt":null,"stimulus":"<p style=\"font-size: 48px;\">+</p>","key_press":null,"Name":"fixation","trial_type":"html-keyboard-response","trial_index":92,"time_elapsed":293562,"internal_node_id":"0.0-92.0","participant_id":"AA4O2W236E3FW"},{"rt":null,"stimulus":"stimuli/18.jpg","button_pressed":null,"name":"noRating","trial_type":"image-button-response","trial_index":93,"time_elapsed":298563,"internal_node_id":"0.0-93.0","participant_id":"AA4O2W236E3FW"},{"rt":1547,"stimulus":"stimuli/18.jpg","button_pressed":"2","name":"valence","trial_type":"image-button-response","trial_index":94,"time_elapsed":300111,"internal_node_id":"0.0-94.0","participant_id":"AA4O2W236E3FW"},{"rt":2910,"response":"32","name":"rating","trial_type":"image-slider-response","trial_index":95,"time_elapsed":303023,"internal_node_id":"0.0-95.0","participant_id":"AA4O2W236E3FW"},{"rt":3408,"stimulus":"stimuli/18.jpg","button_pressed":"2","name":"emotionType","trial_type":"image-button-response","trial_index":96,"time_elapsed":306433,"internal_node_id":"0.0-96.0","participant_id":"AA4O2W236E3FW"},{"rt":null,"stimulus":"<p style=\"font-size: 48px;\">+</p>","key_press":null,"Name":"fixation","trial_type":"html-keyboard-response","trial_index":97,"time_elapsed":306934,"internal_node_id":"0.0-97.0","participant_id":"AA4O2W236E3FW"},{"rt":null,"stimulus":"stimuli/17.jpg","button_pressed":null,"name":"noRating","trial_type":"image-button-response","trial_index":98,"time_elapsed":311936,"internal_node_id":"0.0-98.0","participant_id":"AA4O2W236E3FW"},{"rt":2429,"stimulus":"stimuli/17.jpg","button_pressed":"2","name":"valence","trial_type":"image-button-response","trial_index":99,"time_elapsed":314366,"internal_node_id":"0.0-99.0","participant_id":"AA4O2W236E3FW"},{"rt":2493,"response":"29","name":"rating","trial_type":"image-slider-response","trial_index":100,"time_elapsed":316861,"internal_node_id":"0.0-100.0","participant_id":"AA4O2W236E3FW"},{"rt":1201,"stimulus":"stimuli/17.jpg","button_pressed":"2","name":"emotionType","trial_type":"image-button-response","trial_index":101,"time_elapsed":318064,"internal_node_id":"0.0-101.0","participant_id":"AA4O2W236E3FW"},{"rt":null,"stimulus":"<p style=\"font-size: 48px;\">+</p>","key_press":null,"Name":"fixation","trial_type":"html-keyboard-response","trial_index":102,"time_elapsed":319566,"internal_node_id":"0.0-102.0","participant_id":"AA4O2W236E3FW"},{"rt":null,"stimulus":"stimuli/36.jpg","button_pressed":null,"name":"noRating","trial_type":"image-button-response","trial_index":103,"time_elapsed":324567,"internal_node_id":"0.0-103.0","participant_id":"AA4O2W236E3FW"},{"rt":3036,"stimulus":"stimuli/36.jpg","button_pressed":"0","name":"valence","trial_type":"image-button-response","trial_index":104,"time_elapsed":327606,"internal_node_id":"0.0-104.0","participant_id":"AA4O2W236E3FW"},{"rt":3161,"response":"67","name":"rating","trial_type":"image-slider-response","trial_index":105,"time_elapsed":330769,"internal_node_id":"0.0-105.0","participant_id":"AA4O2W236E3FW"},{"rt":1209,"stimulus":"stimuli/36.jpg","button_pressed":"0","name":"emotionType","trial_type":"image-button-response","trial_index":106,"time_elapsed":331979,"internal_node_id":"0.0-106.0","participant_id":"AA4O2W236E3FW"},{"rt":null,"stimulus":"<p style=\"font-size: 48px;\">+</p>","key_press":null,"Name":"fixation","trial_type":"html-keyboard-response","trial_index":107,"time_elapsed":333481,"internal_node_id":"0.0-107.0","participant_id":"AA4O2W236E3FW"},{"rt":null,"stimulus":"stimuli/33.jpg","button_pressed":null,"name":"noRating","trial_type":"image-button-response","trial_index":108,"time_elapsed":338482,"internal_node_id":"0.0-108.0","participant_id":"AA4O2W236E3FW"},{"rt":1622,"stimulus":"stimuli/33.jpg","button_pressed":"0","name":"valence","trial_type":"image-button-response","trial_index":109,"time_elapsed":340106,"internal_node_id":"0.0-109.0","participant_id":"AA4O2W236E3FW"},{"rt":3229,"response":"51","name":"rating","trial_type":"image-slider-response","trial_index":110,"time_elapsed":343338,"internal_node_id":"0.0-110.0","participant_id":"AA4O2W236E3FW"},{"rt":1393,"stimulus":"stimuli/33.jpg","button_pressed":"0","name":"emotionType","trial_type":"image-button-response","trial_index":111,"time_elapsed":344734,"internal_node_id":"0.0-111.0","participant_id":"AA4O2W236E3FW"},{"rt":6345,"responses":"{\"Q0\":\"course\"}","trial_type":"survey-text","trial_index":112,"time_elapsed":351082,"internal_node_id":"0.0-112.0-0.0","participant_id":"AA4O2W236E3FW"},{"rt":null,"stimulus":"<p style=\"font-size: 48px;\">+</p>","key_press":null,"Name":"fixation","trial_type":"html-keyboard-response","trial_index":113,"time_elapsed":352583,"internal_node_id":"0.0-113.0","participant_id":"AA4O2W236E3FW"},{"rt":null,"stimulus":"stimuli/9.jpg","button_pressed":null,"name":"noRating","trial_type":"image-button-response","trial_index":114,"time_elapsed":357584,"internal_node_id":"0.0-114.0","participant_id":"AA4O2W236E3FW"},{"rt":4905,"stimulus":"stimuli/9.jpg","button_pressed":"0","name":"valence","trial_type":"image-button-response","trial_index":115,"time_elapsed":362490,"internal_node_id":"0.0-115.0","participant_id":"AA4O2W236E3FW"},{"rt":3194,"response":"52","name":"rating","trial_type":"image-slider-response","trial_index":116,"time_elapsed":365686,"internal_node_id":"0.0-116.0","participant_id":"AA4O2W236E3FW"},{"rt":1539,"stimulus":"stimuli/9.jpg","button_pressed":"0","name":"emotionType","trial_type":"image-button-response","trial_index":117,"time_elapsed":367228,"internal_node_id":"0.0-117.0","participant_id":"AA4O2W236E3FW"},{"rt":null,"stimulus":"<p style=\"font-size: 48px;\">+</p>","key_press":null,"Name":"fixation","trial_type":"html-keyboard-response","trial_index":118,"time_elapsed":368729,"internal_node_id":"0.0-118.0","participant_id":"AA4O2W236E3FW"},{"rt":null,"stimulus":"stimuli/35.jpg","button_pressed":null,"name":"noRating","trial_type":"image-button-response","trial_index":119,"time_elapsed":373730,"internal_node_id":"0.0-119.0","participant_id":"AA4O2W236E3FW"},{"rt":1054,"stimulus":"stimuli/35.jpg","button_pressed":"0","name":"valence","trial_type":"image-button-response","trial_index":120,"time_elapsed":374785,"internal_node_id":"0.0-120.0","participant_id":"AA4O2W236E3FW"},{"rt":3008,"response":"68","name":"rating","trial_type":"image-slider-response","trial_index":121,"time_elapsed":377796,"internal_node_id":"0.0-121.0","participant_id":"AA4O2W236E3FW"},{"rt":1213,"stimulus":"stimuli/35.jpg","button_pressed":"0","name":"emotionType","trial_type":"image-button-response","trial_index":122,"time_elapsed":379010,"internal_node_id":"0.0-122.0","participant_id":"AA4O2W236E3FW"},{"rt":null,"stimulus":"<p style=\"font-size: 48px;\">+</p>","key_press":null,"Name":"fixation","trial_type":"html-keyboard-response","trial_index":123,"time_elapsed":380512,"internal_node_id":"0.0-123.0","participant_id":"AA4O2W236E3FW"},{"rt":null,"stimulus":"stimuli/31.jpg","button_pressed":null,"name":"noRating","trial_type":"image-button-response","trial_index":124,"time_elapsed":385513,"internal_node_id":"0.0-124.0","participant_id":"AA4O2W236E3FW"},{"rt":1813,"stimulus":"stimuli/31.jpg","button_pressed":"0","name":"valence","trial_type":"image-button-response","trial_index":125,"time_elapsed":387328,"internal_node_id":"0.0-125.0","participant_id":"AA4O2W236E3FW"},{"rt":3422,"response":"53","name":"rating","trial_type":"image-slider-response","trial_index":126,"time_elapsed":390751,"internal_node_id":"0.0-126.0","participant_id":"AA4O2W236E3FW"},{"rt":1315,"stimulus":"stimuli/31.jpg","button_pressed":"0","name":"emotionType","trial_type":"image-button-response","trial_index":127,"time_elapsed":392068,"internal_node_id":"0.0-127.0","participant_id":"AA4O2W236E3FW"},{"rt":null,"stimulus":"<p style=\"font-size: 48px;\">+</p>","key_press":null,"Name":"fixation","trial_type":"html-keyboard-response","trial_index":128,"time_elapsed":392569,"internal_node_id":"0.0-128.0","participant_id":"AA4O2W236E3FW"},{"rt":null,"stimulus":"stimuli/19.jpg","button_pressed":null,"name":"noRating","trial_type":"image-button-response","trial_index":129,"time_elapsed":397571,"internal_node_id":"0.0-129.0","participant_id":"AA4O2W236E3FW"},{"rt":2725,"stimulus":"stimuli/19.jpg","button_pressed":"0","name":"valence","trial_type":"image-button-response","trial_index":130,"time_elapsed":400298,"internal_node_id":"0.0-130.0","participant_id":"AA4O2W236E3FW"},{"rt":3721,"response":"40","name":"rating","trial_type":"image-slider-response","trial_index":131,"time_elapsed":404023,"internal_node_id":"0.0-131.0","participant_id":"AA4O2W236E3FW"},{"rt":1751,"stimulus":"stimuli/19.jpg","button_pressed":"0","name":"emotionType","trial_type":"image-button-response","trial_index":132,"time_elapsed":405777,"internal_node_id":"0.0-132.0","participant_id":"AA4O2W236E3FW"},{"rt":null,"stimulus":"<p style=\"font-size: 48px;\">+</p>","key_press":null,"Name":"fixation","trial_type":"html-keyboard-response","trial_index":133,"time_elapsed":406278,"internal_node_id":"0.0-133.0","participant_id":"AA4O2W236E3FW"},{"rt":null,"stimulus":"stimuli/42.jpg","button_pressed":null,"name":"noRating","trial_type":"image-button-response","trial_index":134,"time_elapsed":411280,"internal_node_id":"0.0-134.0","participant_id":"AA4O2W236E3FW"},{"rt":1500,"stimulus":"stimuli/42.jpg","button_pressed":"0","name":"valence","trial_type":"image-button-response","trial_index":135,"time_elapsed":412782,"internal_node_id":"0.0-135.0","participant_id":"AA4O2W236E3FW"},{"rt":8213,"response":"45","name":"rating","trial_type":"image-slider-response","trial_index":136,"time_elapsed":420998,"internal_node_id":"0.0-136.0","participant_id":"AA4O2W236E3FW"},{"rt":1642,"stimulus":"stimuli/42.jpg","button_pressed":"2","name":"emotionType","trial_type":"image-button-response","trial_index":137,"time_elapsed":422641,"internal_node_id":"0.0-137.0","participant_id":"AA4O2W236E3FW"},{"rt":2785,"responses":"{\"Q0\":\"we\"}","trial_type":"survey-text","trial_index":138,"time_elapsed":425428,"internal_node_id":"0.0-138.0-0.0","participant_id":"AA4O2W236E3FW"},{"rt":null,"stimulus":"<p style=\"font-size: 48px;\">+</p>","key_press":null,"Name":"fixation","trial_type":"html-keyboard-response","trial_index":139,"time_elapsed":426430,"internal_node_id":"0.0-139.0","participant_id":"AA4O2W236E3FW"},{"rt":null,"stimulus":"stimuli/5.jpg","button_pressed":null,"name":"noRating","trial_type":"image-button-response","trial_index":140,"time_elapsed":431433,"internal_node_id":"0.0-140.0","participant_id":"AA4O2W236E3FW"},{"rt":1599,"stimulus":"stimuli/5.jpg","button_pressed":"0","name":"valence","trial_type":"image-button-response","trial_index":141,"time_elapsed":433033,"internal_node_id":"0.0-141.0","participant_id":"AA4O2W236E3FW"},{"rt":4895,"response":"43","name":"rating","trial_type":"image-slider-response","trial_index":142,"time_elapsed":437929,"internal_node_id":"0.0-142.0","participant_id":"AA4O2W236E3FW"},{"rt":2501,"stimulus":"stimuli/5.jpg","button_pressed":"2","name":"emotionType","trial_type":"image-button-response","trial_index":143,"time_elapsed":440438,"internal_node_id":"0.0-143.0","participant_id":"AA4O2W236E3FW"},{"rt":null,"stimulus":"<p style=\"font-size: 48px;\">+</p>","key_press":null,"Name":"fixation","trial_type":"html-keyboard-response","trial_index":144,"time_elapsed":441440,"internal_node_id":"0.0-144.0","participant_id":"AA4O2W236E3FW"},{"rt":null,"stimulus":"stimuli/38.jpg","button_pressed":null,"name":"noRating","trial_type":"image-button-response","trial_index":145,"time_elapsed":446442,"internal_node_id":"0.0-145.0","participant_id":"AA4O2W236E3FW"},{"rt":5381,"stimulus":"stimuli/38.jpg","button_pressed":"0","name":"valence","trial_type":"image-button-response","trial_index":146,"time_elapsed":451825,"internal_node_id":"0.0-146.0","participant_id":"AA4O2W236E3FW"},{"rt":3628,"response":"50","name":"rating","trial_type":"image-slider-response","trial_index":147,"time_elapsed":455456,"internal_node_id":"0.0-147.0","participant_id":"AA4O2W236E3FW"},{"rt":1195,"stimulus":"stimuli/38.jpg","button_pressed":"0","name":"emotionType","trial_type":"image-button-response","trial_index":148,"time_elapsed":456653,"internal_node_id":"0.0-148.0","participant_id":"AA4O2W236E3FW"},{"rt":null,"stimulus":"<p style=\"font-size: 48px;\">+</p>","key_press":null,"Name":"fixation","trial_type":"html-keyboard-response","trial_index":149,"time_elapsed":457655,"internal_node_id":"0.0-149.0","participant_id":"AA4O2W236E3FW"},{"rt":null,"stimulus":"stimuli/29.jpg","button_pressed":null,"name":"noRating","trial_type":"image-button-response","trial_index":150,"time_elapsed":462656,"internal_node_id":"0.0-150.0","participant_id":"AA4O2W236E3FW"},{"rt":1598,"stimulus":"stimuli/29.jpg","button_pressed":"0","name":"valence","trial_type":"image-button-response","trial_index":151,"time_elapsed":464256,"internal_node_id":"0.0-151.0","participant_id":"AA4O2W236E3FW"},{"rt":2802,"response":"41","name":"rating","trial_type":"image-slider-response","trial_index":152,"time_elapsed":467060,"internal_node_id":"0.0-152.0","participant_id":"AA4O2W236E3FW"},{"rt":1486,"stimulus":"stimuli/29.jpg","button_pressed":"2","name":"emotionType","trial_type":"image-button-response","trial_index":153,"time_elapsed":468548,"internal_node_id":"0.0-153.0","participant_id":"AA4O2W236E3FW"},{"rt":null,"stimulus":"<p style=\"font-size: 48px;\">+</p>","key_press":null,"Name":"fixation","trial_type":"html-keyboard-response","trial_index":154,"time_elapsed":470050,"internal_node_id":"0.0-154.0","participant_id":"AA4O2W236E3FW"},{"rt":null,"stimulus":"stimuli/25.jpg","button_pressed":null,"name":"noRating","trial_type":"image-button-response","trial_index":155,"time_elapsed":475051,"internal_node_id":"0.0-155.0","participant_id":"AA4O2W236E3FW"},{"rt":1147,"stimulus":"stimuli/25.jpg","button_pressed":"0","name":"valence","trial_type":"image-button-response","trial_index":156,"time_elapsed":476200,"internal_node_id":"0.0-156.0","participant_id":"AA4O2W236E3FW"},{"rt":2921,"response":"70","name":"rating","trial_type":"image-slider-response","trial_index":157,"time_elapsed":479123,"internal_node_id":"0.0-157.0","participant_id":"AA4O2W236E3FW"},{"rt":1255,"stimulus":"stimuli/25.jpg","button_pressed":"0","name":"emotionType","trial_type":"image-button-response","trial_index":158,"time_elapsed":480380,"internal_node_id":"0.0-158.0","participant_id":"AA4O2W236E3FW"},{"rt":null,"stimulus":"<p style=\"font-size: 48px;\">+</p>","key_press":null,"Name":"fixation","trial_type":"html-keyboard-response","trial_index":159,"time_elapsed":481381,"internal_node_id":"0.0-159.0","participant_id":"AA4O2W236E3FW"},{"rt":null,"stimulus":"stimuli/2.jpg","button_pressed":null,"name":"noRating","trial_type":"image-button-response","trial_index":160,"time_elapsed":486384,"internal_node_id":"0.0-160.0","participant_id":"AA4O2W236E3FW"},{"rt":5058,"stimulus":"stimuli/2.jpg","button_pressed":"2","name":"valence","trial_type":"image-button-response","trial_index":161,"time_elapsed":491444,"internal_node_id":"0.0-161.0","participant_id":"AA4O2W236E3FW"},{"rt":3841,"response":"52","name":"rating","trial_type":"image-slider-response","trial_index":162,"time_elapsed":495287,"internal_node_id":"0.0-162.0","participant_id":"AA4O2W236E3FW"},{"rt":1589,"stimulus":"stimuli/2.jpg","button_pressed":"2","name":"emotionType","trial_type":"image-button-response","trial_index":163,"time_elapsed":496879,"internal_node_id":"0.0-163.0","participant_id":"AA4O2W236E3FW"},{"rt":4494,"stimulus":"stimuli/ins/Slide8.JPG","button_pressed":"0","trial_type":"image-button-response","trial_index":164,"time_elapsed":501375,"internal_node_id":"0.0-164.0","participant_id":"AA4O2W236E3FW"}]