[{"rt":23636,"responses":"{\"Q0\":\"AH31QLJ57XC8W\"}","trial_type":"survey-text","trial_index":0,"time_elapsed":23653,"internal_node_id":"0.0-0.0-0.0","participant_id":"AH31QLJ57XC8W"},{"rt":2772,"stimulus":"stimuli/ins/Slide1.JPG","button_pressed":"0","Name":"instructions","trial_type":"image-button-response","trial_index":1,"time_elapsed":26440,"internal_node_id":"0.0-1.0","participant_id":"AH31QLJ57XC8W"},{"rt":2838,"stimulus":"stimuli/ins/Slide2.JPG","button_pressed":"0","Name":"instructions","trial_type":"image-button-response","trial_index":2,"time_elapsed":29286,"internal_node_id":"0.0-2.0","participant_id":"AH31QLJ57XC8W"},{"rt":9085,"stimulus":"stimuli/ins/Slide3.JPG","button_pressed":"0","Name":"instructions","trial_type":"image-button-response","trial_index":3,"time_elapsed":38375,"internal_node_id":"0.0-3.0","participant_id":"AH31QLJ57XC8W"},{"rt":3412,"stimulus":"stimuli/ins/Slide4.JPG","button_pressed":"0","Name":"instructions","trial_type":"image-button-response","trial_index":4,"time_elapsed":41792,"internal_node_id":"0.0-4.0","participant_id":"AH31QLJ57XC8W"},{"rt":1623,"stimulus":"stimuli/ins/Slide5.JPG","button_pressed":"0","Name":"instructions","trial_type":"image-button-response","trial_index":5,"time_elapsed":43420,"internal_node_id":"0.0-5.0","participant_id":"AH31QLJ57XC8W"},{"rt":595,"stimulus":"stimuli/ins/Slide6.JPG","button_pressed":"0","Name":"instructions","trial_type":"image-button-response","trial_index":6,"time_elapsed":44018,"internal_node_id":"0.0-6.0","participant_id":"AH31QLJ57XC8W"},{"rt":729,"stimulus":"stimuli/ins/Slide7.JPG","button_pressed":"0","Name":"instructions","trial_type":"image-button-response","trial_index":7,"time_elapsed":44753,"internal_node_id":"0.0-7.0","participant_id":"AH31QLJ57XC8W"},{"rt":10880,"responses":"{\"Q0\":\"but\"}","trial_type":"survey-text","trial_index":8,"time_elapsed":55639,"internal_node_id":"0.0-8.0-0.0","participant_id":"AH31QLJ57XC8W"},{"rt":null,"stimulus":"<p style=\"font-size: 48px;\">+</p>","key_press":null,"Name":"fixation","trial_type":"html-keyboard-response","trial_index":9,"time_elapsed":56150,"internal_node_id":"0.0-9.0","participant_id":"AH31QLJ57XC8W"},{"rt":null,"stimulus":"stimuli/56.jpg","button_pressed":null,"name":"noRating","trial_type":"image-button-response","trial_index":10,"time_elapsed":61155,"internal_node_id":"0.0-10.0","participant_id":"AH31QLJ57XC8W"},{"rt":11769,"stimulus":"stimuli/56.jpg","button_pressed":"0","name":"valence","trial_type":"image-button-response","trial_index":11,"time_elapsed":72929,"internal_node_id":"0.0-11.0","participant_id":"AH31QLJ57XC8W"},{"rt":3281,"response":"100","name":"rating","trial_type":"image-slider-response","trial_index":12,"time_elapsed":76221,"internal_node_id":"0.0-12.0","participant_id":"AH31QLJ57XC8W"},{"rt":8058,"stimulus":"stimuli/56.jpg","button_pressed":"0","name":"emotionType","trial_type":"image-button-response","trial_index":13,"time_elapsed":84292,"internal_node_id":"0.0-13.0","participant_id":"AH31QLJ57XC8W"},{"rt":null,"stimulus":"<p style=\"font-size: 48px;\">+</p>","key_press":null,"Name":"fixation","trial_type":"html-keyboard-response","trial_index":14,"time_elapsed":84797,"internal_node_id":"0.0-14.0","participant_id":"AH31QLJ57XC8W"},{"rt":null,"stimulus":"stimuli/20.jpg","button_pressed":null,"name":"noRating","trial_type":"image-button-response","trial_index":15,"time_elapsed":89801,"internal_node_id":"0.0-15.0","participant_id":"AH31QLJ57XC8W"},{"rt":1682,"stimulus":"stimuli/20.jpg","button_pressed":"0","name":"valence","trial_type":"image-button-response","trial_index":16,"time_elapsed":91487,"internal_node_id":"0.0-16.0","participant_id":"AH31QLJ57XC8W"},{"rt":8842,"response":"77","name":"rating","trial_type":"image-slider-response","trial_index":17,"time_elapsed":100337,"internal_node_id":"0.0-17.0","participant_id":"AH31QLJ57XC8W"},{"rt":1365,"stimulus":"stimuli/20.jpg","button_pressed":"0","name":"emotionType","trial_type":"image-button-response","trial_index":18,"time_elapsed":101710,"internal_node_id":"0.0-18.0","participant_id":"AH31QLJ57XC8W"},{"rt":null,"stimulus":"<p style=\"font-size: 48px;\">+</p>","key_press":null,"Name":"fixation","trial_type":"html-keyboard-response","trial_index":19,"time_elapsed":102215,"internal_node_id":"0.0-19.0","participant_id":"AH31QLJ57XC8W"},{"rt":null,"stimulus":"stimuli/51.jpg","button_pressed":null,"name":"noRating","trial_type":"image-button-response","trial_index":20,"time_elapsed":107219,"internal_node_id":"0.0-20.0","participant_id":"AH31QLJ57XC8W"},{"rt":8126,"stimulus":"stimuli/51.jpg","button_pressed":"0","name":"valence","trial_type":"image-button-response","trial_index":21,"time_elapsed":115351,"internal_node_id":"0.0-21.0","participant_id":"AH31QLJ57XC8W"},{"rt":2536,"response":"99","name":"rating","trial_type":"image-slider-response","trial_index":22,"time_elapsed":117892,"internal_node_id":"0.0-22.0","participant_id":"AH31QLJ57XC8W"},{"rt":1568,"stimulus":"stimuli/51.jpg","button_pressed":"1","name":"emotionType","trial_type":"image-button-response","trial_index":23,"time_elapsed":119468,"internal_node_id":"0.0-23.0","participant_id":"AH31QLJ57XC8W"},{"rt":null,"stimulus":"<p style=\"font-size: 48px;\">+</p>","key_press":null,"Name":"fixation","trial_type":"html-keyboard-response","trial_index":24,"time_elapsed":119971,"internal_node_id":"0.0-24.0","participant_id":"AH31QLJ57XC8W"},{"rt":null,"stimulus":"stimuli/50.jpg","button_pressed":null,"name":"noRating","trial_type":"image-button-response","trial_index":25,"time_elapsed":124978,"internal_node_id":"0.0-25.0","participant_id":"AH31QLJ57XC8W"},{"rt":4992,"stimulus":"stimuli/50.jpg","button_pressed":"0","name":"valence","trial_type":"image-button-response","trial_index":26,"time_elapsed":129974,"internal_node_id":"0.0-26.0","participant_id":"AH31QLJ57XC8W"},{"rt":3142,"response":"100","name":"rating","trial_type":"image-slider-response","trial_index":27,"time_elapsed":133123,"internal_node_id":"0.0-27.0","participant_id":"AH31QLJ57XC8W"},{"rt":1730,"stimulus":"stimuli/50.jpg","button_pressed":"1","name":"emotionType","trial_type":"image-button-response","trial_index":28,"time_elapsed":134859,"internal_node_id":"0.0-28.0","participant_id":"AH31QLJ57XC8W"},{"rt":null,"stimulus":"<p style=\"font-size: 48px;\">+</p>","key_press":null,"Name":"fixation","trial_type":"html-keyboard-response","trial_index":29,"time_elapsed":136364,"internal_node_id":"0.0-29.0","participant_id":"AH31QLJ57XC8W"},{"rt":null,"stimulus":"stimuli/60.jpg","button_pressed":null,"name":"noRating","trial_type":"image-button-response","trial_index":30,"time_elapsed":141369,"internal_node_id":"0.0-30.0","participant_id":"AH31QLJ57XC8W"},{"rt":8992,"stimulus":"stimuli/60.jpg","button_pressed":"0","name":"valence","trial_type":"image-button-response","trial_index":31,"time_elapsed":150369,"internal_node_id":"0.0-31.0","participant_id":"AH31QLJ57XC8W"},{"rt":5706,"response":"96","name":"rating","trial_type":"image-slider-response","trial_index":32,"time_elapsed":156084,"internal_node_id":"0.0-32.0","participant_id":"AH31QLJ57XC8W"},{"rt":6771,"stimulus":"stimuli/60.jpg","button_pressed":"1","name":"emotionType","trial_type":"image-button-response","trial_index":33,"time_elapsed":162863,"internal_node_id":"0.0-33.0","participant_id":"AH31QLJ57XC8W"},{"rt":6633,"responses":"{\"Q0\":\"rock\"}","trial_type":"survey-text","trial_index":34,"time_elapsed":169499,"internal_node_id":"0.0-34.0-0.0","participant_id":"AH31QLJ57XC8W"},{"rt":null,"stimulus":"<p style=\"font-size: 48px;\">+</p>","key_press":null,"Name":"fixation","trial_type":"html-keyboard-response","trial_index":35,"time_elapsed":170004,"internal_node_id":"0.0-35.0","participant_id":"AH31QLJ57XC8W"},{"rt":null,"stimulus":"stimuli/28.jpg","button_pressed":null,"name":"noRating","trial_type":"image-button-response","trial_index":36,"time_elapsed":175009,"internal_node_id":"0.0-36.0","participant_id":"AH31QLJ57XC8W"},{"rt":3772,"stimulus":"stimuli/28.jpg","button_pressed":"0","name":"valence","trial_type":"image-button-response","trial_index":37,"time_elapsed":178785,"internal_node_id":"0.0-37.0","participant_id":"AH31QLJ57XC8W"},{"rt":6236,"response":"88","name":"rating","trial_type":"image-slider-response","trial_index":38,"time_elapsed":185028,"internal_node_id":"0.0-38.0","participant_id":"AH31QLJ57XC8W"},{"rt":2702,"stimulus":"stimuli/28.jpg","button_pressed":"1","name":"emotionType","trial_type":"image-button-response","trial_index":39,"time_elapsed":187738,"internal_node_id":"0.0-39.0","participant_id":"AH31QLJ57XC8W"},{"rt":null,"stimulus":"<p style=\"font-size: 48px;\">+</p>","key_press":null,"Name":"fixation","trial_type":"html-keyboard-response","trial_index":40,"time_elapsed":189245,"internal_node_id":"0.0-40.0","participant_id":"AH31QLJ57XC8W"},{"rt":null,"stimulus":"stimuli/70.jpg","button_pressed":null,"name":"noRating","trial_type":"image-button-response","trial_index":41,"time_elapsed":194253,"internal_node_id":"0.0-41.0","participant_id":"AH31QLJ57XC8W"},{"rt":1782,"stimulus":"stimuli/70.jpg","button_pressed":"0","name":"valence","trial_type":"image-button-response","trial_index":42,"time_elapsed":196040,"internal_node_id":"0.0-42.0","participant_id":"AH31QLJ57XC8W"},{"rt":4525,"response":"100","name":"rating","trial_type":"image-slider-response","trial_index":43,"time_elapsed":200572,"internal_node_id":"0.0-43.0","participant_id":"AH31QLJ57XC8W"},{"rt":8493,"stimulus":"stimuli/70.jpg","button_pressed":"1","name":"emotionType","trial_type":"image-button-response","trial_index":44,"time_elapsed":209074,"internal_node_id":"0.0-44.0","participant_id":"AH31QLJ57XC8W"},{"rt":null,"stimulus":"<p style=\"font-size: 48px;\">+</p>","key_press":null,"Name":"fixation","trial_type":"html-keyboard-response","trial_index":45,"time_elapsed":209579,"internal_node_id":"0.0-45.0","participant_id":"AH31QLJ57XC8W"},{"rt":null,"stimulus":"stimuli/31.jpg","button_pressed":null,"name":"noRating","trial_type":"image-button-response","trial_index":46,"time_elapsed":214586,"internal_node_id":"0.0-46.0","participant_id":"AH31QLJ57XC8W"},{"rt":2071,"stimulus":"stimuli/31.jpg","button_pressed":"0","name":"valence","trial_type":"image-button-response","trial_index":47,"time_elapsed":216661,"internal_node_id":"0.0-47.0","participant_id":"AH31QLJ57XC8W"},{"rt":6257,"response":"99","name":"rating","trial_type":"image-slider-response","trial_index":48,"time_elapsed":222930,"internal_node_id":"0.0-48.0","participant_id":"AH31QLJ57XC8W"},{"rt":7657,"stimulus":"stimuli/31.jpg","button_pressed":"0","name":"emotionType","trial_type":"image-button-response","trial_index":49,"time_elapsed":230595,"internal_node_id":"0.0-49.0","participant_id":"AH31QLJ57XC8W"},{"rt":null,"stimulus":"<p style=\"font-size: 48px;\">+</p>","key_press":null,"Name":"fixation","trial_type":"html-keyboard-response","trial_index":50,"time_elapsed":232105,"internal_node_id":"0.0-50.0","participant_id":"AH31QLJ57XC8W"},{"rt":null,"stimulus":"stimuli/42.jpg","button_pressed":null,"name":"noRating","trial_type":"image-button-response","trial_index":51,"time_elapsed":237110,"internal_node_id":"0.0-51.0","participant_id":"AH31QLJ57XC8W"},{"rt":10699,"stimulus":"stimuli/42.jpg","button_pressed":"2","name":"valence","trial_type":"image-button-response","trial_index":52,"time_elapsed":247814,"internal_node_id":"0.0-52.0","participant_id":"AH31QLJ57XC8W"},{"rt":2248,"response":"60","name":"rating","trial_type":"image-slider-response","trial_index":53,"time_elapsed":250070,"internal_node_id":"0.0-53.0","participant_id":"AH31QLJ57XC8W"},{"rt":7407,"stimulus":"stimuli/42.jpg","button_pressed":"2","name":"emotionType","trial_type":"image-button-response","trial_index":54,"time_elapsed":257482,"internal_node_id":"0.0-54.0","participant_id":"AH31QLJ57XC8W"},{"rt":null,"stimulus":"<p style=\"font-size: 48px;\">+</p>","key_press":null,"Name":"fixation","trial_type":"html-keyboard-response","trial_index":55,"time_elapsed":257990,"internal_node_id":"0.0-55.0","participant_id":"AH31QLJ57XC8W"},{"rt":null,"stimulus":"stimuli/19.jpg","button_pressed":null,"name":"noRating","trial_type":"image-button-response","trial_index":56,"time_elapsed":262995,"internal_node_id":"0.0-56.0","participant_id":"AH31QLJ57XC8W"},{"rt":346254,"stimulus":"stimuli/19.jpg","button_pressed":"0","name":"valence","trial_type":"image-button-response","trial_index":57,"time_elapsed":609254,"internal_node_id":"0.0-57.0","participant_id":"AH31QLJ57XC8W"},{"rt":2135,"response":"79","name":"rating","trial_type":"image-slider-response","trial_index":58,"time_elapsed":611395,"internal_node_id":"0.0-58.0","participant_id":"AH31QLJ57XC8W"},{"rt":2076,"stimulus":"stimuli/19.jpg","button_pressed":"1","name":"emotionType","trial_type":"image-button-response","trial_index":59,"time_elapsed":613478,"internal_node_id":"0.0-59.0","participant_id":"AH31QLJ57XC8W"},{"rt":4141,"responses":"{\"Q0\":\"sky\"}","trial_type":"survey-text","trial_index":60,"time_elapsed":617624,"internal_node_id":"0.0-60.0-0.0","participant_id":"AH31QLJ57XC8W"},{"rt":null,"stimulus":"<p style=\"font-size: 48px;\">+</p>","key_press":null,"Name":"fixation","trial_type":"html-keyboard-response","trial_index":61,"time_elapsed":619131,"internal_node_id":"0.0-61.0","participant_id":"AH31QLJ57XC8W"},{"rt":null,"stimulus":"stimuli/24.jpg","button_pressed":null,"name":"noRating","trial_type":"image-button-response","trial_index":62,"time_elapsed":624138,"internal_node_id":"0.0-62.0","participant_id":"AH31QLJ57XC8W"},{"rt":2235,"stimulus":"stimuli/24.jpg","button_pressed":"0","name":"valence","trial_type":"image-button-response","trial_index":63,"time_elapsed":626377,"internal_node_id":"0.0-63.0","participant_id":"AH31QLJ57XC8W"},{"rt":14976,"response":"70","name":"rating","trial_type":"image-slider-response","trial_index":64,"time_elapsed":641358,"internal_node_id":"0.0-64.0","participant_id":"AH31QLJ57XC8W"},{"rt":6181,"stimulus":"stimuli/24.jpg","button_pressed":"1","name":"emotionType","trial_type":"image-button-response","trial_index":65,"time_elapsed":647547,"internal_node_id":"0.0-65.0","participant_id":"AH31QLJ57XC8W"},{"rt":null,"stimulus":"<p style=\"font-size: 48px;\">+</p>","key_press":null,"Name":"fixation","trial_type":"html-keyboard-response","trial_index":66,"time_elapsed":649051,"internal_node_id":"0.0-66.0","participant_id":"AH31QLJ57XC8W"},{"rt":null,"stimulus":"stimuli/35.jpg","button_pressed":null,"name":"noRating","trial_type":"image-button-response","trial_index":67,"time_elapsed":654057,"internal_node_id":"0.0-67.0","participant_id":"AH31QLJ57XC8W"},{"rt":2754,"stimulus":"stimuli/35.jpg","button_pressed":"0","name":"valence","trial_type":"image-button-response","trial_index":68,"time_elapsed":656821,"internal_node_id":"0.0-68.0","participant_id":"AH31QLJ57XC8W"},{"rt":6578,"response":"68","name":"rating","trial_type":"image-slider-response","trial_index":69,"time_elapsed":663406,"internal_node_id":"0.0-69.0","participant_id":"AH31QLJ57XC8W"},{"rt":4537,"stimulus":"stimuli/35.jpg","button_pressed":"1","name":"emotionType","trial_type":"image-button-response","trial_index":70,"time_elapsed":667949,"internal_node_id":"0.0-70.0","participant_id":"AH31QLJ57XC8W"},{"rt":null,"stimulus":"<p style=\"font-size: 48px;\">+</p>","key_press":null,"Name":"fixation","trial_type":"html-keyboard-response","trial_index":71,"time_elapsed":668954,"internal_node_id":"0.0-71.0","participant_id":"AH31QLJ57XC8W"},{"rt":null,"stimulus":"stimuli/34.jpg","button_pressed":null,"name":"noRating","trial_type":"image-button-response","trial_index":72,"time_elapsed":673963,"internal_node_id":"0.0-72.0","participant_id":"AH31QLJ57XC8W"},{"rt":1142,"stimulus":"stimuli/34.jpg","button_pressed":"0","name":"valence","trial_type":"image-button-response","trial_index":73,"time_elapsed":675109,"internal_node_id":"0.0-73.0","participant_id":"AH31QLJ57XC8W"},{"rt":2817,"response":"77","name":"rating","trial_type":"image-slider-response","trial_index":74,"time_elapsed":677933,"internal_node_id":"0.0-74.0","participant_id":"AH31QLJ57XC8W"},{"rt":4306,"stimulus":"stimuli/34.jpg","button_pressed":"0","name":"emotionType","trial_type":"image-button-response","trial_index":75,"time_elapsed":682246,"internal_node_id":"0.0-75.0","participant_id":"AH31QLJ57XC8W"},{"rt":null,"stimulus":"<p style=\"font-size: 48px;\">+</p>","key_press":null,"Name":"fixation","trial_type":"html-keyboard-response","trial_index":76,"time_elapsed":682753,"internal_node_id":"0.0-76.0","participant_id":"AH31QLJ57XC8W"},{"rt":null,"stimulus":"stimuli/6.jpg","button_pressed":null,"name":"noRating","trial_type":"image-button-response","trial_index":77,"time_elapsed":687757,"internal_node_id":"0.0-77.0","participant_id":"AH31QLJ57XC8W"},{"rt":1259,"stimulus":"stimuli/6.jpg","button_pressed":"0","name":"valence","trial_type":"image-button-response","trial_index":78,"time_elapsed":689022,"internal_node_id":"0.0-78.0","participant_id":"AH31QLJ57XC8W"},{"rt":4905,"response":"88","name":"rating","trial_type":"image-slider-response","trial_index":79,"time_elapsed":693934,"internal_node_id":"0.0-79.0","participant_id":"AH31QLJ57XC8W"},{"rt":2678,"stimulus":"stimuli/6.jpg","button_pressed":"1","name":"emotionType","trial_type":"image-button-response","trial_index":80,"time_elapsed":696617,"internal_node_id":"0.0-80.0","participant_id":"AH31QLJ57XC8W"},{"rt":null,"stimulus":"<p style=\"font-size: 48px;\">+</p>","key_press":null,"Name":"fixation","trial_type":"html-keyboard-response","trial_index":81,"time_elapsed":697622,"internal_node_id":"0.0-81.0","participant_id":"AH31QLJ57XC8W"},{"rt":null,"stimulus":"stimuli/47.jpg","button_pressed":null,"name":"noRating","trial_type":"image-button-response","trial_index":82,"time_elapsed":702625,"internal_node_id":"0.0-82.0","participant_id":"AH31QLJ57XC8W"},{"rt":1122,"stimulus":"stimuli/47.jpg","button_pressed":"0","name":"valence","trial_type":"image-button-response","trial_index":83,"time_elapsed":703751,"internal_node_id":"0.0-83.0","participant_id":"AH31QLJ57XC8W"},{"rt":2883,"response":"90","name":"rating","trial_type":"image-slider-response","trial_index":84,"time_elapsed":706641,"internal_node_id":"0.0-84.0","participant_id":"AH31QLJ57XC8W"},{"rt":1432,"stimulus":"stimuli/47.jpg","button_pressed":"1","name":"emotionType","trial_type":"image-button-response","trial_index":85,"time_elapsed":708083,"internal_node_id":"0.0-85.0","participant_id":"AH31QLJ57XC8W"},{"rt":3419,"responses":"{\"Q0\":\"our\"}","trial_type":"survey-text","trial_index":86,"time_elapsed":711508,"internal_node_id":"0.0-86.0-0.0","participant_id":"AH31QLJ57XC8W"},{"rt":null,"stimulus":"<p style=\"font-size: 48px;\">+</p>","key_press":null,"Name":"fixation","trial_type":"html-keyboard-response","trial_index":87,"time_elapsed":712014,"internal_node_id":"0.0-87.0","participant_id":"AH31QLJ57XC8W"},{"rt":null,"stimulus":"stimuli/11.jpg","button_pressed":null,"name":"noRating","trial_type":"image-button-response","trial_index":88,"time_elapsed":717018,"internal_node_id":"0.0-88.0","participant_id":"AH31QLJ57XC8W"},{"rt":1477,"stimulus":"stimuli/11.jpg","button_pressed":"0","name":"valence","trial_type":"image-button-response","trial_index":89,"time_elapsed":718499,"internal_node_id":"0.0-89.0","participant_id":"AH31QLJ57XC8W"},{"rt":2803,"response":"97","name":"rating","trial_type":"image-slider-response","trial_index":90,"time_elapsed":721309,"internal_node_id":"0.0-90.0","participant_id":"AH31QLJ57XC8W"},{"rt":1243,"stimulus":"stimuli/11.jpg","button_pressed":"0","name":"emotionType","trial_type":"image-button-response","trial_index":91,"time_elapsed":722559,"internal_node_id":"0.0-91.0","participant_id":"AH31QLJ57XC8W"},{"rt":null,"stimulus":"<p style=\"font-size: 48px;\">+</p>","key_press":null,"Name":"fixation","trial_type":"html-keyboard-response","trial_index":92,"time_elapsed":723062,"internal_node_id":"0.0-92.0","participant_id":"AH31QLJ57XC8W"},{"rt":null,"stimulus":"stimuli/54.jpg","button_pressed":null,"name":"noRating","trial_type":"image-button-response","trial_index":93,"time_elapsed":728070,"internal_node_id":"0.0-93.0","participant_id":"AH31QLJ57XC8W"},{"rt":4694,"stimulus":"stimuli/54.jpg","button_pressed":"0","name":"valence","trial_type":"image-button-response","trial_index":94,"time_elapsed":732767,"internal_node_id":"0.0-94.0","participant_id":"AH31QLJ57XC8W"},{"rt":5384,"response":"98","name":"rating","trial_type":"image-slider-response","trial_index":95,"time_elapsed":738160,"internal_node_id":"0.0-95.0","participant_id":"AH31QLJ57XC8W"},{"rt":3582,"stimulus":"stimuli/54.jpg","button_pressed":"0","name":"emotionType","trial_type":"image-button-response","trial_index":96,"time_elapsed":741746,"internal_node_id":"0.0-96.0","participant_id":"AH31QLJ57XC8W"},{"rt":null,"stimulus":"<p style=\"font-size: 48px;\">+</p>","key_press":null,"Name":"fixation","trial_type":"html-keyboard-response","trial_index":97,"time_elapsed":743252,"internal_node_id":"0.0-97.0","participant_id":"AH31QLJ57XC8W"},{"rt":null,"stimulus":"stimuli/9.jpg","button_pressed":null,"name":"noRating","trial_type":"image-button-response","trial_index":98,"time_elapsed":748258,"internal_node_id":"0.0-98.0","participant_id":"AH31QLJ57XC8W"},{"rt":2847,"stimulus":"stimuli/9.jpg","button_pressed":"0","name":"valence","trial_type":"image-button-response","trial_index":99,"time_elapsed":751107,"internal_node_id":"0.0-99.0","participant_id":"AH31QLJ57XC8W"},{"rt":3764,"response":"85","name":"rating","trial_type":"image-slider-response","trial_index":100,"time_elapsed":754879,"internal_node_id":"0.0-100.0","participant_id":"AH31QLJ57XC8W"},{"rt":3331,"stimulus":"stimuli/9.jpg","button_pressed":"1","name":"emotionType","trial_type":"image-button-response","trial_index":101,"time_elapsed":758217,"internal_node_id":"0.0-101.0","participant_id":"AH31QLJ57XC8W"},{"rt":null,"stimulus":"<p style=\"font-size: 48px;\">+</p>","key_press":null,"Name":"fixation","trial_type":"html-keyboard-response","trial_index":102,"time_elapsed":758721,"internal_node_id":"0.0-102.0","participant_id":"AH31QLJ57XC8W"},{"rt":null,"stimulus":"stimuli/39.jpg","button_pressed":null,"name":"noRating","trial_type":"image-button-response","trial_index":103,"time_elapsed":763724,"internal_node_id":"0.0-103.0","participant_id":"AH31QLJ57XC8W"},{"rt":1640,"stimulus":"stimuli/39.jpg","button_pressed":"0","name":"valence","trial_type":"image-button-response","trial_index":104,"time_elapsed":765369,"internal_node_id":"0.0-104.0","participant_id":"AH31QLJ57XC8W"},{"rt":2892,"response":"90","name":"rating","trial_type":"image-slider-response","trial_index":105,"time_elapsed":768273,"internal_node_id":"0.0-105.0","participant_id":"AH31QLJ57XC8W"},{"rt":4270,"stimulus":"stimuli/39.jpg","button_pressed":"0","name":"emotionType","trial_type":"image-button-response","trial_index":106,"time_elapsed":772550,"internal_node_id":"0.0-106.0","participant_id":"AH31QLJ57XC8W"},{"rt":null,"stimulus":"<p style=\"font-size: 48px;\">+</p>","key_press":null,"Name":"fixation","trial_type":"html-keyboard-response","trial_index":107,"time_elapsed":773054,"internal_node_id":"0.0-107.0","participant_id":"AH31QLJ57XC8W"},{"rt":null,"stimulus":"stimuli/29.jpg","button_pressed":null,"name":"noRating","trial_type":"image-button-response","trial_index":108,"time_elapsed":778060,"internal_node_id":"0.0-108.0","participant_id":"AH31QLJ57XC8W"},{"rt":2363,"stimulus":"stimuli/29.jpg","button_pressed":"0","name":"valence","trial_type":"image-button-response","trial_index":109,"time_elapsed":780427,"internal_node_id":"0.0-109.0","participant_id":"AH31QLJ57XC8W"},{"rt":3973,"response":"86","name":"rating","trial_type":"image-slider-response","trial_index":110,"time_elapsed":784406,"internal_node_id":"0.0-110.0","participant_id":"AH31QLJ57XC8W"},{"rt":4204,"stimulus":"stimuli/29.jpg","button_pressed":"0","name":"emotionType","trial_type":"image-button-response","trial_index":111,"time_elapsed":788617,"internal_node_id":"0.0-111.0","participant_id":"AH31QLJ57XC8W"},{"rt":5174,"responses":"{\"Q0\":\"course\"}","trial_type":"survey-text","trial_index":112,"time_elapsed":793797,"internal_node_id":"0.0-112.0-0.0","participant_id":"AH31QLJ57XC8W"},{"rt":null,"stimulus":"<p style=\"font-size: 48px;\">+</p>","key_press":null,"Name":"fixation","trial_type":"html-keyboard-response","trial_index":113,"time_elapsed":794804,"internal_node_id":"0.0-113.0","participant_id":"AH31QLJ57XC8W"},{"rt":null,"stimulus":"stimuli/65.jpg","button_pressed":null,"name":"noRating","trial_type":"image-button-response","trial_index":114,"time_elapsed":799812,"internal_node_id":"0.0-114.0","participant_id":"AH31QLJ57XC8W"},{"rt":4747,"stimulus":"stimuli/65.jpg","button_pressed":"0","name":"valence","trial_type":"image-button-response","trial_index":115,"time_elapsed":804562,"internal_node_id":"0.0-115.0","participant_id":"AH31QLJ57XC8W"},{"rt":4545,"response":"87","name":"rating","trial_type":"image-slider-response","trial_index":116,"time_elapsed":809113,"internal_node_id":"0.0-116.0","participant_id":"AH31QLJ57XC8W"},{"rt":2660,"stimulus":"stimuli/65.jpg","button_pressed":"0","name":"emotionType","trial_type":"image-button-response","trial_index":117,"time_elapsed":811779,"internal_node_id":"0.0-117.0","participant_id":"AH31QLJ57XC8W"},{"rt":null,"stimulus":"<p style=\"font-size: 48px;\">+</p>","key_press":null,"Name":"fixation","trial_type":"html-keyboard-response","trial_index":118,"time_elapsed":812288,"internal_node_id":"0.0-118.0","participant_id":"AH31QLJ57XC8W"},{"rt":null,"stimulus":"stimuli/15.jpg","button_pressed":null,"name":"noRating","trial_type":"image-button-response","trial_index":119,"time_elapsed":817296,"internal_node_id":"0.0-119.0","participant_id":"AH31QLJ57XC8W"},{"rt":2494,"stimulus":"stimuli/15.jpg","button_pressed":"0","name":"valence","trial_type":"image-button-response","trial_index":120,"time_elapsed":819794,"internal_node_id":"0.0-120.0","participant_id":"AH31QLJ57XC8W"},{"rt":6359,"response":"94","name":"rating","trial_type":"image-slider-response","trial_index":121,"time_elapsed":826161,"internal_node_id":"0.0-121.0","participant_id":"AH31QLJ57XC8W"},{"rt":6076,"stimulus":"stimuli/15.jpg","button_pressed":"0","name":"emotionType","trial_type":"image-button-response","trial_index":122,"time_elapsed":832243,"internal_node_id":"0.0-122.0","participant_id":"AH31QLJ57XC8W"},{"rt":null,"stimulus":"<p style=\"font-size: 48px;\">+</p>","key_press":null,"Name":"fixation","trial_type":"html-keyboard-response","trial_index":123,"time_elapsed":832746,"internal_node_id":"0.0-123.0","participant_id":"AH31QLJ57XC8W"},{"rt":null,"stimulus":"stimuli/16.jpg","button_pressed":null,"name":"noRating","trial_type":"image-button-response","trial_index":124,"time_elapsed":837754,"internal_node_id":"0.0-124.0","participant_id":"AH31QLJ57XC8W"},{"rt":1087,"stimulus":"stimuli/16.jpg","button_pressed":"0","name":"valence","trial_type":"image-button-response","trial_index":125,"time_elapsed":838845,"internal_node_id":"0.0-125.0","participant_id":"AH31QLJ57XC8W"},{"rt":7423,"response":"91","name":"rating","trial_type":"image-slider-response","trial_index":126,"time_elapsed":846274,"internal_node_id":"0.0-126.0","participant_id":"AH31QLJ57XC8W"},{"rt":5205,"stimulus":"stimuli/16.jpg","button_pressed":"1","name":"emotionType","trial_type":"image-button-response","trial_index":127,"time_elapsed":851486,"internal_node_id":"0.0-127.0","participant_id":"AH31QLJ57XC8W"},{"rt":null,"stimulus":"<p style=\"font-size: 48px;\">+</p>","key_press":null,"Name":"fixation","trial_type":"html-keyboard-response","trial_index":128,"time_elapsed":852491,"internal_node_id":"0.0-128.0","participant_id":"AH31QLJ57XC8W"},{"rt":null,"stimulus":"stimuli/12.jpg","button_pressed":null,"name":"noRating","trial_type":"image-button-response","trial_index":129,"time_elapsed":857495,"internal_node_id":"0.0-129.0","participant_id":"AH31QLJ57XC8W"},{"rt":977,"stimulus":"stimuli/12.jpg","button_pressed":"0","name":"valence","trial_type":"image-button-response","trial_index":130,"time_elapsed":858478,"internal_node_id":"0.0-130.0","participant_id":"AH31QLJ57XC8W"},{"rt":7698,"response":"86","name":"rating","trial_type":"image-slider-response","trial_index":131,"time_elapsed":866184,"internal_node_id":"0.0-131.0","participant_id":"AH31QLJ57XC8W"},{"rt":1667,"stimulus":"stimuli/12.jpg","button_pressed":"0","name":"emotionType","trial_type":"image-button-response","trial_index":132,"time_elapsed":867857,"internal_node_id":"0.0-132.0","participant_id":"AH31QLJ57XC8W"},{"rt":null,"stimulus":"<p style=\"font-size: 48px;\">+</p>","key_press":null,"Name":"fixation","trial_type":"html-keyboard-response","trial_index":133,"time_elapsed":868862,"internal_node_id":"0.0-133.0","participant_id":"AH31QLJ57XC8W"},{"rt":null,"stimulus":"stimuli/49.jpg","button_pressed":null,"name":"noRating","trial_type":"image-button-response","trial_index":134,"time_elapsed":873868,"internal_node_id":"0.0-134.0","participant_id":"AH31QLJ57XC8W"},{"rt":1402,"stimulus":"stimuli/49.jpg","button_pressed":"0","name":"valence","trial_type":"image-button-response","trial_index":135,"time_elapsed":875275,"internal_node_id":"0.0-135.0","participant_id":"AH31QLJ57XC8W"},{"rt":1826,"response":"0","name":"rating","trial_type":"image-slider-response","trial_index":136,"time_elapsed":877109,"internal_node_id":"0.0-136.0","participant_id":"AH31QLJ57XC8W"},{"rt":4003,"stimulus":"stimuli/49.jpg","button_pressed":"0","name":"emotionType","trial_type":"image-button-response","trial_index":137,"time_elapsed":882721,"internal_node_id":"0.0-137.0","participant_id":"AH31QLJ57XC8W"},{"rt":3677,"responses":"{\"Q0\":\"we\"}","trial_type":"survey-text","trial_index":138,"time_elapsed":886413,"internal_node_id":"0.0-138.0-0.0","participant_id":"AH31QLJ57XC8W"},{"rt":null,"stimulus":"<p style=\"font-size: 48px;\">+</p>","key_press":null,"Name":"fixation","trial_type":"html-keyboard-response","trial_index":139,"time_elapsed":887420,"internal_node_id":"0.0-139.0","participant_id":"AH31QLJ57XC8W"},{"rt":null,"stimulus":"stimuli/22.jpg","button_pressed":null,"name":"noRating","trial_type":"image-button-response","trial_index":140,"time_elapsed":892426,"internal_node_id":"0.0-140.0","participant_id":"AH31QLJ57XC8W"},{"rt":2561,"stimulus":"stimuli/22.jpg","button_pressed":"0","name":"valence","trial_type":"image-button-response","trial_index":141,"time_elapsed":894991,"internal_node_id":"0.0-141.0","participant_id":"AH31QLJ57XC8W"},{"rt":2376,"response":"100","name":"rating","trial_type":"image-slider-response","trial_index":142,"time_elapsed":897379,"internal_node_id":"0.0-142.0","participant_id":"AH31QLJ57XC8W"},{"rt":2639,"stimulus":"stimuli/22.jpg","button_pressed":"0","name":"emotionType","trial_type":"image-button-response","trial_index":143,"time_elapsed":900026,"internal_node_id":"0.0-143.0","participant_id":"AH31QLJ57XC8W"},{"rt":null,"stimulus":"<p style=\"font-size: 48px;\">+</p>","key_press":null,"Name":"fixation","trial_type":"html-keyboard-response","trial_index":144,"time_elapsed":901531,"internal_node_id":"0.0-144.0","participant_id":"AH31QLJ57XC8W"},{"rt":null,"stimulus":"stimuli/45.jpg","button_pressed":null,"name":"noRating","trial_type":"image-button-response","trial_index":145,"time_elapsed":906539,"internal_node_id":"0.0-145.0","participant_id":"AH31QLJ57XC8W"},{"rt":1288,"stimulus":"stimuli/45.jpg","button_pressed":"0","name":"valence","trial_type":"image-button-response","trial_index":146,"time_elapsed":907831,"internal_node_id":"0.0-146.0","participant_id":"AH31QLJ57XC8W"},{"rt":2608,"response":"92","name":"rating","trial_type":"image-slider-response","trial_index":147,"time_elapsed":910446,"internal_node_id":"0.0-147.0","participant_id":"AH31QLJ57XC8W"},{"rt":2310,"stimulus":"stimuli/45.jpg","button_pressed":"0","name":"emotionType","trial_type":"image-button-response","trial_index":148,"time_elapsed":912762,"internal_node_id":"0.0-148.0","participant_id":"AH31QLJ57XC8W"},{"rt":null,"stimulus":"<p style=\"font-size: 48px;\">+</p>","key_press":null,"Name":"fixation","trial_type":"html-keyboard-response","trial_index":149,"time_elapsed":913271,"internal_node_id":"0.0-149.0","participant_id":"AH31QLJ57XC8W"},{"rt":null,"stimulus":"stimuli/17.jpg","button_pressed":null,"name":"noRating","trial_type":"image-button-response","trial_index":150,"time_elapsed":918274,"internal_node_id":"0.0-150.0","participant_id":"AH31QLJ57XC8W"},{"rt":1217,"stimulus":"stimuli/17.jpg","button_pressed":"0","name":"valence","trial_type":"image-button-response","trial_index":151,"time_elapsed":919496,"internal_node_id":"0.0-151.0","participant_id":"AH31QLJ57XC8W"},{"rt":2505,"response":"97","name":"rating","trial_type":"image-slider-response","trial_index":152,"time_elapsed":922008,"internal_node_id":"0.0-152.0","participant_id":"AH31QLJ57XC8W"},{"rt":4043,"stimulus":"stimuli/17.jpg","button_pressed":"0","name":"emotionType","trial_type":"image-button-response","trial_index":153,"time_elapsed":926056,"internal_node_id":"0.0-153.0","participant_id":"AH31QLJ57XC8W"},{"rt":null,"stimulus":"<p style=\"font-size: 48px;\">+</p>","key_press":null,"Name":"fixation","trial_type":"html-keyboard-response","trial_index":154,"time_elapsed":926565,"internal_node_id":"0.0-154.0","participant_id":"AH31QLJ57XC8W"},{"rt":null,"stimulus":"stimuli/36.jpg","button_pressed":null,"name":"noRating","trial_type":"image-button-response","trial_index":155,"time_elapsed":931570,"internal_node_id":"0.0-155.0","participant_id":"AH31QLJ57XC8W"},{"rt":1539,"stimulus":"stimuli/36.jpg","button_pressed":"0","name":"valence","trial_type":"image-button-response","trial_index":156,"time_elapsed":933113,"internal_node_id":"0.0-156.0","participant_id":"AH31QLJ57XC8W"},{"rt":3386,"response":"60","name":"rating","trial_type":"image-slider-response","trial_index":157,"time_elapsed":936504,"internal_node_id":"0.0-157.0","participant_id":"AH31QLJ57XC8W"},{"rt":7143,"stimulus":"stimuli/36.jpg","button_pressed":"2","name":"emotionType","trial_type":"image-button-response","trial_index":158,"time_elapsed":943654,"internal_node_id":"0.0-158.0","participant_id":"AH31QLJ57XC8W"},{"rt":null,"stimulus":"<p style=\"font-size: 48px;\">+</p>","key_press":null,"Name":"fixation","trial_type":"html-keyboard-response","trial_index":159,"time_elapsed":944659,"internal_node_id":"0.0-159.0","participant_id":"AH31QLJ57XC8W"},{"rt":null,"stimulus":"stimuli/4.jpg","button_pressed":null,"name":"noRating","trial_type":"image-button-response","trial_index":160,"time_elapsed":949666,"internal_node_id":"0.0-160.0","participant_id":"AH31QLJ57XC8W"},{"rt":1347,"stimulus":"stimuli/4.jpg","button_pressed":"0","name":"valence","trial_type":"image-button-response","trial_index":161,"time_elapsed":951016,"internal_node_id":"0.0-161.0","participant_id":"AH31QLJ57XC8W"},{"rt":2405,"response":"88","name":"rating","trial_type":"image-slider-response","trial_index":162,"time_elapsed":953428,"internal_node_id":"0.0-162.0","participant_id":"AH31QLJ57XC8W"},{"rt":2665,"stimulus":"stimuli/4.jpg","button_pressed":"0","name":"emotionType","trial_type":"image-button-response","trial_index":163,"time_elapsed":956102,"internal_node_id":"0.0-163.0","participant_id":"AH31QLJ57XC8W"},{"rt":3189,"stimulus":"stimuli/ins/Slide8.JPG","button_pressed":"0","trial_type":"image-button-response","trial_index":164,"time_elapsed":959294,"internal_node_id":"0.0-164.0","participant_id":"AH31QLJ57XC8W"}]