[{"rt":4794,"responses":"{\"Q0\":\"AK4WZEW584BR9\"}","trial_type":"survey-text","trial_index":0,"time_elapsed":4795,"internal_node_id":"0.0-0.0-0.0","participant_id":"AK4WZEW584BR9"},{"rt":7015,"stimulus":"stimuli/ins/Slide1.JPG","button_pressed":"0","Name":"instructions","trial_type":"image-button-response","trial_index":1,"time_elapsed":11813,"internal_node_id":"0.0-1.0","participant_id":"AK4WZEW584BR9"},{"rt":5017,"stimulus":"stimuli/ins/Slide2.JPG","button_pressed":"0","Name":"instructions","trial_type":"image-button-response","trial_index":2,"time_elapsed":16831,"internal_node_id":"0.0-2.0","participant_id":"AK4WZEW584BR9"},{"rt":7343,"stimulus":"stimuli/ins/Slide3.JPG","button_pressed":"0","Name":"instructions","trial_type":"image-button-response","trial_index":3,"time_elapsed":24175,"internal_node_id":"0.0-3.0","participant_id":"AK4WZEW584BR9"},{"rt":3939,"stimulus":"stimuli/ins/Slide4.JPG","button_pressed":"0","Name":"instructions","trial_type":"image-button-response","trial_index":4,"time_elapsed":28115,"internal_node_id":"0.0-4.0","participant_id":"AK4WZEW584BR9"},{"rt":2413,"stimulus":"stimuli/ins/Slide5.JPG","button_pressed":"0","Name":"instructions","trial_type":"image-button-response","trial_index":5,"time_elapsed":30528,"internal_node_id":"0.0-5.0","participant_id":"AK4WZEW584BR9"},{"rt":2397,"stimulus":"stimuli/ins/Slide6.JPG","button_pressed":"0","Name":"instructions","trial_type":"image-button-response","trial_index":6,"time_elapsed":32927,"internal_node_id":"0.0-6.0","participant_id":"AK4WZEW584BR9"},{"rt":1171,"stimulus":"stimuli/ins/Slide7.JPG","button_pressed":"0","Name":"instructions","trial_type":"image-button-response","trial_index":7,"time_elapsed":34099,"internal_node_id":"0.0-7.0","participant_id":"AK4WZEW584BR9"},{"rt":9578,"responses":"{\"Q0\":\"but\"}","trial_type":"survey-text","trial_index":8,"time_elapsed":43678,"internal_node_id":"0.0-8.0-0.0","participant_id":"AK4WZEW584BR9"},{"rt":null,"stimulus":"<p style=\"font-size: 48px;\">+</p>","key_press":null,"Name":"fixation","trial_type":"html-keyboard-response","trial_index":9,"time_elapsed":44680,"internal_node_id":"0.0-9.0","participant_id":"AK4WZEW584BR9"},{"rt":null,"stimulus":"stimuli/37.jpg","button_pressed":null,"name":"noRating","trial_type":"image-button-response","trial_index":10,"time_elapsed":49683,"internal_node_id":"0.0-10.0","participant_id":"AK4WZEW584BR9"},{"rt":3690,"stimulus":"stimuli/37.jpg","button_pressed":"2","name":"valence","trial_type":"image-button-response","trial_index":11,"time_elapsed":53373,"internal_node_id":"0.0-11.0","participant_id":"AK4WZEW584BR9"},{"rt":3241,"response":"51","name":"rating","trial_type":"image-slider-response","trial_index":12,"time_elapsed":56615,"internal_node_id":"0.0-12.0","participant_id":"AK4WZEW584BR9"},{"rt":4673,"stimulus":"stimuli/37.jpg","button_pressed":"3","name":"emotionType","trial_type":"image-button-response","trial_index":13,"time_elapsed":61291,"internal_node_id":"0.0-13.0","participant_id":"AK4WZEW584BR9"},{"rt":null,"stimulus":"<p style=\"font-size: 48px;\">+</p>","key_press":null,"Name":"fixation","trial_type":"html-keyboard-response","trial_index":14,"time_elapsed":61795,"internal_node_id":"0.0-14.0","participant_id":"AK4WZEW584BR9"},{"rt":null,"stimulus":"stimuli/17.jpg","button_pressed":null,"name":"noRating","trial_type":"image-button-response","trial_index":15,"time_elapsed":66797,"internal_node_id":"0.0-15.0","participant_id":"AK4WZEW584BR9"},{"rt":10880,"stimulus":"stimuli/17.jpg","button_pressed":"2","name":"valence","trial_type":"image-button-response","trial_index":16,"time_elapsed":77678,"internal_node_id":"0.0-16.0","participant_id":"AK4WZEW584BR9"},{"rt":2660,"response":"51","name":"rating","trial_type":"image-slider-response","trial_index":17,"time_elapsed":80339,"internal_node_id":"0.0-17.0","participant_id":"AK4WZEW584BR9"},{"rt":9911,"stimulus":"stimuli/17.jpg","button_pressed":"3","name":"emotionType","trial_type":"image-button-response","trial_index":18,"time_elapsed":90250,"internal_node_id":"0.0-18.0","participant_id":"AK4WZEW584BR9"},{"rt":null,"stimulus":"<p style=\"font-size: 48px;\">+</p>","key_press":null,"Name":"fixation","trial_type":"html-keyboard-response","trial_index":19,"time_elapsed":91752,"internal_node_id":"0.0-19.0","participant_id":"AK4WZEW584BR9"},{"rt":null,"stimulus":"stimuli/61.jpg","button_pressed":null,"name":"noRating","trial_type":"image-button-response","trial_index":20,"time_elapsed":96754,"internal_node_id":"0.0-20.0","participant_id":"AK4WZEW584BR9"},{"rt":4072,"stimulus":"stimuli/61.jpg","button_pressed":"2","name":"valence","trial_type":"image-button-response","trial_index":21,"time_elapsed":100826,"internal_node_id":"0.0-21.0","participant_id":"AK4WZEW584BR9"},{"rt":3561,"response":"50","name":"rating","trial_type":"image-slider-response","trial_index":22,"time_elapsed":104388,"internal_node_id":"0.0-22.0","participant_id":"AK4WZEW584BR9"},{"rt":3493,"stimulus":"stimuli/61.jpg","button_pressed":"0","name":"emotionType","trial_type":"image-button-response","trial_index":23,"time_elapsed":107882,"internal_node_id":"0.0-23.0","participant_id":"AK4WZEW584BR9"},{"rt":null,"stimulus":"<p style=\"font-size: 48px;\">+</p>","key_press":null,"Name":"fixation","trial_type":"html-keyboard-response","trial_index":24,"time_elapsed":108383,"internal_node_id":"0.0-24.0","participant_id":"AK4WZEW584BR9"},{"rt":null,"stimulus":"stimuli/3.jpg","button_pressed":null,"name":"noRating","trial_type":"image-button-response","trial_index":25,"time_elapsed":113383,"internal_node_id":"0.0-25.0","participant_id":"AK4WZEW584BR9"},{"rt":1703,"stimulus":"stimuli/3.jpg","button_pressed":"2","name":"valence","trial_type":"image-button-response","trial_index":26,"time_elapsed":115087,"internal_node_id":"0.0-26.0","participant_id":"AK4WZEW584BR9"},{"rt":2602,"response":"52","name":"rating","trial_type":"image-slider-response","trial_index":27,"time_elapsed":117691,"internal_node_id":"0.0-27.0","participant_id":"AK4WZEW584BR9"},{"rt":2085,"stimulus":"stimuli/3.jpg","button_pressed":"2","name":"emotionType","trial_type":"image-button-response","trial_index":28,"time_elapsed":119777,"internal_node_id":"0.0-28.0","participant_id":"AK4WZEW584BR9"},{"rt":null,"stimulus":"<p style=\"font-size: 48px;\">+</p>","key_press":null,"Name":"fixation","trial_type":"html-keyboard-response","trial_index":29,"time_elapsed":120778,"internal_node_id":"0.0-29.0","participant_id":"AK4WZEW584BR9"},{"rt":null,"stimulus":"stimuli/30.jpg","button_pressed":null,"name":"noRating","trial_type":"image-button-response","trial_index":30,"time_elapsed":125780,"internal_node_id":"0.0-30.0","participant_id":"AK4WZEW584BR9"},{"rt":1702,"stimulus":"stimuli/30.jpg","button_pressed":"2","name":"valence","trial_type":"image-button-response","trial_index":31,"time_elapsed":127483,"internal_node_id":"0.0-31.0","participant_id":"AK4WZEW584BR9"},{"rt":2630,"response":"52","name":"rating","trial_type":"image-slider-response","trial_index":32,"time_elapsed":130114,"internal_node_id":"0.0-32.0","participant_id":"AK4WZEW584BR9"},{"rt":9793,"stimulus":"stimuli/30.jpg","button_pressed":"2","name":"emotionType","trial_type":"image-button-response","trial_index":33,"time_elapsed":139908,"internal_node_id":"0.0-33.0","participant_id":"AK4WZEW584BR9"},{"rt":7247,"responses":"{\"Q0\":\"rock\"}","trial_type":"survey-text","trial_index":34,"time_elapsed":147157,"internal_node_id":"0.0-34.0-0.0","participant_id":"AK4WZEW584BR9"},{"rt":null,"stimulus":"<p style=\"font-size: 48px;\">+</p>","key_press":null,"Name":"fixation","trial_type":"html-keyboard-response","trial_index":35,"time_elapsed":147659,"internal_node_id":"0.0-35.0","participant_id":"AK4WZEW584BR9"},{"rt":null,"stimulus":"stimuli/47.jpg","button_pressed":null,"name":"noRating","trial_type":"image-button-response","trial_index":36,"time_elapsed":152661,"internal_node_id":"0.0-36.0","participant_id":"AK4WZEW584BR9"},{"rt":1359,"stimulus":"stimuli/47.jpg","button_pressed":"0","name":"valence","trial_type":"image-button-response","trial_index":37,"time_elapsed":154020,"internal_node_id":"0.0-37.0","participant_id":"AK4WZEW584BR9"},{"rt":3156,"response":"50","name":"rating","trial_type":"image-slider-response","trial_index":38,"time_elapsed":157178,"internal_node_id":"0.0-38.0","participant_id":"AK4WZEW584BR9"},{"rt":3488,"stimulus":"stimuli/47.jpg","button_pressed":"1","name":"emotionType","trial_type":"image-button-response","trial_index":39,"time_elapsed":160666,"internal_node_id":"0.0-39.0","participant_id":"AK4WZEW584BR9"},{"rt":null,"stimulus":"<p style=\"font-size: 48px;\">+</p>","key_press":null,"Name":"fixation","trial_type":"html-keyboard-response","trial_index":40,"time_elapsed":161167,"internal_node_id":"0.0-40.0","participant_id":"AK4WZEW584BR9"},{"rt":null,"stimulus":"stimuli/38.jpg","button_pressed":null,"name":"noRating","trial_type":"image-button-response","trial_index":41,"time_elapsed":166169,"internal_node_id":"0.0-41.0","participant_id":"AK4WZEW584BR9"},{"rt":1705,"stimulus":"stimuli/38.jpg","button_pressed":"0","name":"valence","trial_type":"image-button-response","trial_index":42,"time_elapsed":167875,"internal_node_id":"0.0-42.0","participant_id":"AK4WZEW584BR9"},{"rt":4623,"response":"100","name":"rating","trial_type":"image-slider-response","trial_index":43,"time_elapsed":172499,"internal_node_id":"0.0-43.0","participant_id":"AK4WZEW584BR9"},{"rt":2161,"stimulus":"stimuli/38.jpg","button_pressed":"0","name":"emotionType","trial_type":"image-button-response","trial_index":44,"time_elapsed":174661,"internal_node_id":"0.0-44.0","participant_id":"AK4WZEW584BR9"},{"rt":null,"stimulus":"<p style=\"font-size: 48px;\">+</p>","key_press":null,"Name":"fixation","trial_type":"html-keyboard-response","trial_index":45,"time_elapsed":175663,"internal_node_id":"0.0-45.0","participant_id":"AK4WZEW584BR9"},{"rt":null,"stimulus":"stimuli/44.jpg","button_pressed":null,"name":"noRating","trial_type":"image-button-response","trial_index":46,"time_elapsed":180665,"internal_node_id":"0.0-46.0","participant_id":"AK4WZEW584BR9"},{"rt":929,"stimulus":"stimuli/44.jpg","button_pressed":"2","name":"valence","trial_type":"image-button-response","trial_index":47,"time_elapsed":181595,"internal_node_id":"0.0-47.0","participant_id":"AK4WZEW584BR9"},{"rt":2004,"response":"48","name":"rating","trial_type":"image-slider-response","trial_index":48,"time_elapsed":183600,"internal_node_id":"0.0-48.0","participant_id":"AK4WZEW584BR9"},{"rt":4912,"stimulus":"stimuli/44.jpg","button_pressed":"1","name":"emotionType","trial_type":"image-button-response","trial_index":49,"time_elapsed":188513,"internal_node_id":"0.0-49.0","participant_id":"AK4WZEW584BR9"},{"rt":null,"stimulus":"<p style=\"font-size: 48px;\">+</p>","key_press":null,"Name":"fixation","trial_type":"html-keyboard-response","trial_index":50,"time_elapsed":189514,"internal_node_id":"0.0-50.0","participant_id":"AK4WZEW584BR9"},{"rt":null,"stimulus":"stimuli/34.jpg","button_pressed":null,"name":"noRating","trial_type":"image-button-response","trial_index":51,"time_elapsed":194516,"internal_node_id":"0.0-51.0","participant_id":"AK4WZEW584BR9"},{"rt":1740,"stimulus":"stimuli/34.jpg","button_pressed":"2","name":"valence","trial_type":"image-button-response","trial_index":52,"time_elapsed":196256,"internal_node_id":"0.0-52.0","participant_id":"AK4WZEW584BR9"},{"rt":1634,"response":"51","name":"rating","trial_type":"image-slider-response","trial_index":53,"time_elapsed":197892,"internal_node_id":"0.0-53.0","participant_id":"AK4WZEW584BR9"},{"rt":5098,"stimulus":"stimuli/34.jpg","button_pressed":"0","name":"emotionType","trial_type":"image-button-response","trial_index":54,"time_elapsed":202990,"internal_node_id":"0.0-54.0","participant_id":"AK4WZEW584BR9"},{"rt":null,"stimulus":"<p style=\"font-size: 48px;\">+</p>","key_press":null,"Name":"fixation","trial_type":"html-keyboard-response","trial_index":55,"time_elapsed":204491,"internal_node_id":"0.0-55.0","participant_id":"AK4WZEW584BR9"},{"rt":null,"stimulus":"stimuli/1.jpg","button_pressed":null,"name":"noRating","trial_type":"image-button-response","trial_index":56,"time_elapsed":209492,"internal_node_id":"0.0-56.0","participant_id":"AK4WZEW584BR9"},{"rt":4470,"stimulus":"stimuli/1.jpg","button_pressed":"2","name":"valence","trial_type":"image-button-response","trial_index":57,"time_elapsed":213962,"internal_node_id":"0.0-57.0","participant_id":"AK4WZEW584BR9"},{"rt":2265,"response":"49","name":"rating","trial_type":"image-slider-response","trial_index":58,"time_elapsed":216229,"internal_node_id":"0.0-58.0","participant_id":"AK4WZEW584BR9"},{"rt":1620,"stimulus":"stimuli/1.jpg","button_pressed":"2","name":"emotionType","trial_type":"image-button-response","trial_index":59,"time_elapsed":217849,"internal_node_id":"0.0-59.0","participant_id":"AK4WZEW584BR9"},{"rt":4984,"responses":"{\"Q0\":\"sky\"}","trial_type":"survey-text","trial_index":60,"time_elapsed":222834,"internal_node_id":"0.0-60.0-0.0","participant_id":"AK4WZEW584BR9"},{"rt":null,"stimulus":"<p style=\"font-size: 48px;\">+</p>","key_press":null,"Name":"fixation","trial_type":"html-keyboard-response","trial_index":61,"time_elapsed":223335,"internal_node_id":"0.0-61.0","participant_id":"AK4WZEW584BR9"},{"rt":null,"stimulus":"stimuli/14.jpg","button_pressed":null,"name":"noRating","trial_type":"image-button-response","trial_index":62,"time_elapsed":228335,"internal_node_id":"0.0-62.0","participant_id":"AK4WZEW584BR9"},{"rt":1581,"stimulus":"stimuli/14.jpg","button_pressed":"2","name":"valence","trial_type":"image-button-response","trial_index":63,"time_elapsed":229917,"internal_node_id":"0.0-63.0","participant_id":"AK4WZEW584BR9"},{"rt":2502,"response":"50","name":"rating","trial_type":"image-slider-response","trial_index":64,"time_elapsed":232419,"internal_node_id":"0.0-64.0","participant_id":"AK4WZEW584BR9"},{"rt":2560,"stimulus":"stimuli/14.jpg","button_pressed":"1","name":"emotionType","trial_type":"image-button-response","trial_index":65,"time_elapsed":234980,"internal_node_id":"0.0-65.0","participant_id":"AK4WZEW584BR9"},{"rt":null,"stimulus":"<p style=\"font-size: 48px;\">+</p>","key_press":null,"Name":"fixation","trial_type":"html-keyboard-response","trial_index":66,"time_elapsed":236482,"internal_node_id":"0.0-66.0","participant_id":"AK4WZEW584BR9"},{"rt":null,"stimulus":"stimuli/46.jpg","button_pressed":null,"name":"noRating","trial_type":"image-button-response","trial_index":67,"time_elapsed":241484,"internal_node_id":"0.0-67.0","participant_id":"AK4WZEW584BR9"},{"rt":6687,"stimulus":"stimuli/46.jpg","button_pressed":"0","name":"valence","trial_type":"image-button-response","trial_index":68,"time_elapsed":248172,"internal_node_id":"0.0-68.0","participant_id":"AK4WZEW584BR9"},{"rt":2887,"response":"50","name":"rating","trial_type":"image-slider-response","trial_index":69,"time_elapsed":251060,"internal_node_id":"0.0-69.0","participant_id":"AK4WZEW584BR9"},{"rt":1664,"stimulus":"stimuli/46.jpg","button_pressed":"1","name":"emotionType","trial_type":"image-button-response","trial_index":70,"time_elapsed":252724,"internal_node_id":"0.0-70.0","participant_id":"AK4WZEW584BR9"},{"rt":null,"stimulus":"<p style=\"font-size: 48px;\">+</p>","key_press":null,"Name":"fixation","trial_type":"html-keyboard-response","trial_index":71,"time_elapsed":253226,"internal_node_id":"0.0-71.0","participant_id":"AK4WZEW584BR9"},{"rt":null,"stimulus":"stimuli/49.jpg","button_pressed":null,"name":"noRating","trial_type":"image-button-response","trial_index":72,"time_elapsed":258228,"internal_node_id":"0.0-72.0","participant_id":"AK4WZEW584BR9"},{"rt":1003,"stimulus":"stimuli/49.jpg","button_pressed":"0","name":"valence","trial_type":"image-button-response","trial_index":73,"time_elapsed":259232,"internal_node_id":"0.0-73.0","participant_id":"AK4WZEW584BR9"},{"rt":3130,"response":"100","name":"rating","trial_type":"image-slider-response","trial_index":74,"time_elapsed":262362,"internal_node_id":"0.0-74.0","participant_id":"AK4WZEW584BR9"},{"rt":2774,"stimulus":"stimuli/49.jpg","button_pressed":"0","name":"emotionType","trial_type":"image-button-response","trial_index":75,"time_elapsed":265137,"internal_node_id":"0.0-75.0","participant_id":"AK4WZEW584BR9"},{"rt":null,"stimulus":"<p style=\"font-size: 48px;\">+</p>","key_press":null,"Name":"fixation","trial_type":"html-keyboard-response","trial_index":76,"time_elapsed":266138,"internal_node_id":"0.0-76.0","participant_id":"AK4WZEW584BR9"},{"rt":null,"stimulus":"stimuli/19.jpg","button_pressed":null,"name":"noRating","trial_type":"image-button-response","trial_index":77,"time_elapsed":271139,"internal_node_id":"0.0-77.0","participant_id":"AK4WZEW584BR9"},{"rt":3413,"stimulus":"stimuli/19.jpg","button_pressed":"0","name":"valence","trial_type":"image-button-response","trial_index":78,"time_elapsed":274553,"internal_node_id":"0.0-78.0","participant_id":"AK4WZEW584BR9"},{"rt":2004,"response":"53","name":"rating","trial_type":"image-slider-response","trial_index":79,"time_elapsed":276557,"internal_node_id":"0.0-79.0","participant_id":"AK4WZEW584BR9"},{"rt":983,"stimulus":"stimuli/19.jpg","button_pressed":"1","name":"emotionType","trial_type":"image-button-response","trial_index":80,"time_elapsed":277543,"internal_node_id":"0.0-80.0","participant_id":"AK4WZEW584BR9"},{"rt":null,"stimulus":"<p style=\"font-size: 48px;\">+</p>","key_press":null,"Name":"fixation","trial_type":"html-keyboard-response","trial_index":81,"time_elapsed":278544,"internal_node_id":"0.0-81.0","participant_id":"AK4WZEW584BR9"},{"rt":null,"stimulus":"stimuli/48.jpg","button_pressed":null,"name":"noRating","trial_type":"image-button-response","trial_index":82,"time_elapsed":283546,"internal_node_id":"0.0-82.0","participant_id":"AK4WZEW584BR9"},{"rt":1760,"stimulus":"stimuli/48.jpg","button_pressed":"0","name":"valence","trial_type":"image-button-response","trial_index":83,"time_elapsed":285307,"internal_node_id":"0.0-83.0","participant_id":"AK4WZEW584BR9"},{"rt":4217,"response":"100","name":"rating","trial_type":"image-slider-response","trial_index":84,"time_elapsed":289525,"internal_node_id":"0.0-84.0","participant_id":"AK4WZEW584BR9"},{"rt":2806,"stimulus":"stimuli/48.jpg","button_pressed":"0","name":"emotionType","trial_type":"image-button-response","trial_index":85,"time_elapsed":292331,"internal_node_id":"0.0-85.0","participant_id":"AK4WZEW584BR9"},{"rt":4991,"responses":"{\"Q0\":\"our\"}","trial_type":"survey-text","trial_index":86,"time_elapsed":297324,"internal_node_id":"0.0-86.0-0.0","participant_id":"AK4WZEW584BR9"},{"rt":null,"stimulus":"<p style=\"font-size: 48px;\">+</p>","key_press":null,"Name":"fixation","trial_type":"html-keyboard-response","trial_index":87,"time_elapsed":298825,"internal_node_id":"0.0-87.0","participant_id":"AK4WZEW584BR9"},{"rt":null,"stimulus":"stimuli/21.jpg","button_pressed":null,"name":"noRating","trial_type":"image-button-response","trial_index":88,"time_elapsed":303826,"internal_node_id":"0.0-88.0","participant_id":"AK4WZEW584BR9"},{"rt":1813,"stimulus":"stimuli/21.jpg","button_pressed":"2","name":"valence","trial_type":"image-button-response","trial_index":89,"time_elapsed":305640,"internal_node_id":"0.0-89.0","participant_id":"AK4WZEW584BR9"},{"rt":2377,"response":"50","name":"rating","trial_type":"image-slider-response","trial_index":90,"time_elapsed":308017,"internal_node_id":"0.0-90.0","participant_id":"AK4WZEW584BR9"},{"rt":2779,"stimulus":"stimuli/21.jpg","button_pressed":"1","name":"emotionType","trial_type":"image-button-response","trial_index":91,"time_elapsed":310797,"internal_node_id":"0.0-91.0","participant_id":"AK4WZEW584BR9"},{"rt":null,"stimulus":"<p style=\"font-size: 48px;\">+</p>","key_press":null,"Name":"fixation","trial_type":"html-keyboard-response","trial_index":92,"time_elapsed":311800,"internal_node_id":"0.0-92.0","participant_id":"AK4WZEW584BR9"},{"rt":null,"stimulus":"stimuli/65.jpg","button_pressed":null,"name":"noRating","trial_type":"image-button-response","trial_index":93,"time_elapsed":316801,"internal_node_id":"0.0-93.0","participant_id":"AK4WZEW584BR9"},{"rt":3024,"stimulus":"stimuli/65.jpg","button_pressed":"2","name":"valence","trial_type":"image-button-response","trial_index":94,"time_elapsed":319825,"internal_node_id":"0.0-94.0","participant_id":"AK4WZEW584BR9"},{"rt":2130,"response":"51","name":"rating","trial_type":"image-slider-response","trial_index":95,"time_elapsed":321957,"internal_node_id":"0.0-95.0","participant_id":"AK4WZEW584BR9"},{"rt":1704,"stimulus":"stimuli/65.jpg","button_pressed":"2","name":"emotionType","trial_type":"image-button-response","trial_index":96,"time_elapsed":323661,"internal_node_id":"0.0-96.0","participant_id":"AK4WZEW584BR9"},{"rt":null,"stimulus":"<p style=\"font-size: 48px;\">+</p>","key_press":null,"Name":"fixation","trial_type":"html-keyboard-response","trial_index":97,"time_elapsed":324162,"internal_node_id":"0.0-97.0","participant_id":"AK4WZEW584BR9"},{"rt":null,"stimulus":"stimuli/62.jpg","button_pressed":null,"name":"noRating","trial_type":"image-button-response","trial_index":98,"time_elapsed":329163,"internal_node_id":"0.0-98.0","participant_id":"AK4WZEW584BR9"},{"rt":2422,"stimulus":"stimuli/62.jpg","button_pressed":"2","name":"valence","trial_type":"image-button-response","trial_index":99,"time_elapsed":331585,"internal_node_id":"0.0-99.0","participant_id":"AK4WZEW584BR9"},{"rt":1977,"response":"45","name":"rating","trial_type":"image-slider-response","trial_index":100,"time_elapsed":333563,"internal_node_id":"0.0-100.0","participant_id":"AK4WZEW584BR9"},{"rt":1277,"stimulus":"stimuli/62.jpg","button_pressed":"1","name":"emotionType","trial_type":"image-button-response","trial_index":101,"time_elapsed":334841,"internal_node_id":"0.0-101.0","participant_id":"AK4WZEW584BR9"},{"rt":null,"stimulus":"<p style=\"font-size: 48px;\">+</p>","key_press":null,"Name":"fixation","trial_type":"html-keyboard-response","trial_index":102,"time_elapsed":335842,"internal_node_id":"0.0-102.0","participant_id":"AK4WZEW584BR9"},{"rt":null,"stimulus":"stimuli/31.jpg","button_pressed":null,"name":"noRating","trial_type":"image-button-response","trial_index":103,"time_elapsed":340842,"internal_node_id":"0.0-103.0","participant_id":"AK4WZEW584BR9"},{"rt":2318,"stimulus":"stimuli/31.jpg","button_pressed":"0","name":"valence","trial_type":"image-button-response","trial_index":104,"time_elapsed":343162,"internal_node_id":"0.0-104.0","participant_id":"AK4WZEW584BR9"},{"rt":3201,"response":"100","name":"rating","trial_type":"image-slider-response","trial_index":105,"time_elapsed":346363,"internal_node_id":"0.0-105.0","participant_id":"AK4WZEW584BR9"},{"rt":1953,"stimulus":"stimuli/31.jpg","button_pressed":"0","name":"emotionType","trial_type":"image-button-response","trial_index":106,"time_elapsed":348318,"internal_node_id":"0.0-106.0","participant_id":"AK4WZEW584BR9"},{"rt":null,"stimulus":"<p style=\"font-size: 48px;\">+</p>","key_press":null,"Name":"fixation","trial_type":"html-keyboard-response","trial_index":107,"time_elapsed":348818,"internal_node_id":"0.0-107.0","participant_id":"AK4WZEW584BR9"},{"rt":null,"stimulus":"stimuli/40.jpg","button_pressed":null,"name":"noRating","trial_type":"image-button-response","trial_index":108,"time_elapsed":353821,"internal_node_id":"0.0-108.0","participant_id":"AK4WZEW584BR9"},{"rt":2039,"stimulus":"stimuli/40.jpg","button_pressed":"1","name":"valence","trial_type":"image-button-response","trial_index":109,"time_elapsed":355860,"internal_node_id":"0.0-109.0","participant_id":"AK4WZEW584BR9"},{"rt":1989,"response":"56","name":"rating","trial_type":"image-slider-response","trial_index":110,"time_elapsed":357850,"internal_node_id":"0.0-110.0","participant_id":"AK4WZEW584BR9"},{"rt":4457,"stimulus":"stimuli/40.jpg","button_pressed":"3","name":"emotionType","trial_type":"image-button-response","trial_index":111,"time_elapsed":362309,"internal_node_id":"0.0-111.0","participant_id":"AK4WZEW584BR9"},{"rt":8728,"responses":"{\"Q0\":\"course\"}","trial_type":"survey-text","trial_index":112,"time_elapsed":371037,"internal_node_id":"0.0-112.0-0.0","participant_id":"AK4WZEW584BR9"},{"rt":null,"stimulus":"<p style=\"font-size: 48px;\">+</p>","key_press":null,"Name":"fixation","trial_type":"html-keyboard-response","trial_index":113,"time_elapsed":371538,"internal_node_id":"0.0-113.0","participant_id":"AK4WZEW584BR9"},{"rt":null,"stimulus":"stimuli/43.jpg","button_pressed":null,"name":"noRating","trial_type":"image-button-response","trial_index":114,"time_elapsed":376620,"internal_node_id":"0.0-114.0","participant_id":"AK4WZEW584BR9"},{"rt":44601,"stimulus":"stimuli/43.jpg","button_pressed":"2","name":"valence","trial_type":"image-button-response","trial_index":115,"time_elapsed":421222,"internal_node_id":"0.0-115.0","participant_id":"AK4WZEW584BR9"},{"rt":7283,"response":"100","name":"rating","trial_type":"image-slider-response","trial_index":116,"time_elapsed":428506,"internal_node_id":"0.0-116.0","participant_id":"AK4WZEW584BR9"},{"rt":2224,"stimulus":"stimuli/43.jpg","button_pressed":"0","name":"emotionType","trial_type":"image-button-response","trial_index":117,"time_elapsed":430732,"internal_node_id":"0.0-117.0","participant_id":"AK4WZEW584BR9"},{"rt":null,"stimulus":"<p style=\"font-size: 48px;\">+</p>","key_press":null,"Name":"fixation","trial_type":"html-keyboard-response","trial_index":118,"time_elapsed":432233,"internal_node_id":"0.0-118.0","participant_id":"AK4WZEW584BR9"},{"rt":null,"stimulus":"stimuli/7.jpg","button_pressed":null,"name":"noRating","trial_type":"image-button-response","trial_index":119,"time_elapsed":437235,"internal_node_id":"0.0-119.0","participant_id":"AK4WZEW584BR9"},{"rt":1144,"stimulus":"stimuli/7.jpg","button_pressed":"2","name":"valence","trial_type":"image-button-response","trial_index":120,"time_elapsed":438380,"internal_node_id":"0.0-120.0","participant_id":"AK4WZEW584BR9"},{"rt":1705,"response":"51","name":"rating","trial_type":"image-slider-response","trial_index":121,"time_elapsed":440086,"internal_node_id":"0.0-121.0","participant_id":"AK4WZEW584BR9"},{"rt":2048,"stimulus":"stimuli/7.jpg","button_pressed":"2","name":"emotionType","trial_type":"image-button-response","trial_index":122,"time_elapsed":442135,"internal_node_id":"0.0-122.0","participant_id":"AK4WZEW584BR9"},{"rt":null,"stimulus":"<p style=\"font-size: 48px;\">+</p>","key_press":null,"Name":"fixation","trial_type":"html-keyboard-response","trial_index":123,"time_elapsed":442636,"internal_node_id":"0.0-123.0","participant_id":"AK4WZEW584BR9"},{"rt":null,"stimulus":"stimuli/35.jpg","button_pressed":null,"name":"noRating","trial_type":"image-button-response","trial_index":124,"time_elapsed":447638,"internal_node_id":"0.0-124.0","participant_id":"AK4WZEW584BR9"},{"rt":1786,"stimulus":"stimuli/35.jpg","button_pressed":"2","name":"valence","trial_type":"image-button-response","trial_index":125,"time_elapsed":449424,"internal_node_id":"0.0-125.0","participant_id":"AK4WZEW584BR9"},{"rt":1485,"response":"52","name":"rating","trial_type":"image-slider-response","trial_index":126,"time_elapsed":450910,"internal_node_id":"0.0-126.0","participant_id":"AK4WZEW584BR9"},{"rt":7492,"stimulus":"stimuli/35.jpg","button_pressed":"1","name":"emotionType","trial_type":"image-button-response","trial_index":127,"time_elapsed":458403,"internal_node_id":"0.0-127.0","participant_id":"AK4WZEW584BR9"},{"rt":null,"stimulus":"<p style=\"font-size: 48px;\">+</p>","key_press":null,"Name":"fixation","trial_type":"html-keyboard-response","trial_index":128,"time_elapsed":459405,"internal_node_id":"0.0-128.0","participant_id":"AK4WZEW584BR9"},{"rt":null,"stimulus":"stimuli/58.jpg","button_pressed":null,"name":"noRating","trial_type":"image-button-response","trial_index":129,"time_elapsed":464407,"internal_node_id":"0.0-129.0","participant_id":"AK4WZEW584BR9"},{"rt":4164,"stimulus":"stimuli/58.jpg","button_pressed":"2","name":"valence","trial_type":"image-button-response","trial_index":130,"time_elapsed":468572,"internal_node_id":"0.0-130.0","participant_id":"AK4WZEW584BR9"},{"rt":2901,"response":"49","name":"rating","trial_type":"image-slider-response","trial_index":131,"time_elapsed":471475,"internal_node_id":"0.0-131.0","participant_id":"AK4WZEW584BR9"},{"rt":33845,"stimulus":"stimuli/58.jpg","button_pressed":"1","name":"emotionType","trial_type":"image-button-response","trial_index":132,"time_elapsed":505321,"internal_node_id":"0.0-132.0","participant_id":"AK4WZEW584BR9"},{"rt":null,"stimulus":"<p style=\"font-size: 48px;\">+</p>","key_press":null,"Name":"fixation","trial_type":"html-keyboard-response","trial_index":133,"time_elapsed":506322,"internal_node_id":"0.0-133.0","participant_id":"AK4WZEW584BR9"},{"rt":null,"stimulus":"stimuli/63.jpg","button_pressed":null,"name":"noRating","trial_type":"image-button-response","trial_index":134,"time_elapsed":511323,"internal_node_id":"0.0-134.0","participant_id":"AK4WZEW584BR9"},{"rt":1276,"stimulus":"stimuli/63.jpg","button_pressed":"2","name":"valence","trial_type":"image-button-response","trial_index":135,"time_elapsed":512601,"internal_node_id":"0.0-135.0","participant_id":"AK4WZEW584BR9"},{"rt":1704,"response":"48","name":"rating","trial_type":"image-slider-response","trial_index":136,"time_elapsed":514306,"internal_node_id":"0.0-136.0","participant_id":"AK4WZEW584BR9"},{"rt":2227,"stimulus":"stimuli/63.jpg","button_pressed":"3","name":"emotionType","trial_type":"image-button-response","trial_index":137,"time_elapsed":516534,"internal_node_id":"0.0-137.0","participant_id":"AK4WZEW584BR9"},{"rt":4425,"responses":"{\"Q0\":\"we\"}","trial_type":"survey-text","trial_index":138,"time_elapsed":520959,"internal_node_id":"0.0-138.0-0.0","participant_id":"AK4WZEW584BR9"},{"rt":null,"stimulus":"<p style=\"font-size: 48px;\">+</p>","key_press":null,"Name":"fixation","trial_type":"html-keyboard-response","trial_index":139,"time_elapsed":521462,"internal_node_id":"0.0-139.0","participant_id":"AK4WZEW584BR9"},{"rt":null,"stimulus":"stimuli/23.jpg","button_pressed":null,"name":"noRating","trial_type":"image-button-response","trial_index":140,"time_elapsed":526463,"internal_node_id":"0.0-140.0","participant_id":"AK4WZEW584BR9"},{"rt":1970,"stimulus":"stimuli/23.jpg","button_pressed":"2","name":"valence","trial_type":"image-button-response","trial_index":141,"time_elapsed":528433,"internal_node_id":"0.0-141.0","participant_id":"AK4WZEW584BR9"},{"rt":2330,"response":"50","name":"rating","trial_type":"image-slider-response","trial_index":142,"time_elapsed":530764,"internal_node_id":"0.0-142.0","participant_id":"AK4WZEW584BR9"},{"rt":1083,"stimulus":"stimuli/23.jpg","button_pressed":"2","name":"emotionType","trial_type":"image-button-response","trial_index":143,"time_elapsed":531848,"internal_node_id":"0.0-143.0","participant_id":"AK4WZEW584BR9"},{"rt":null,"stimulus":"<p style=\"font-size: 48px;\">+</p>","key_press":null,"Name":"fixation","trial_type":"html-keyboard-response","trial_index":144,"time_elapsed":532849,"internal_node_id":"0.0-144.0","participant_id":"AK4WZEW584BR9"},{"rt":null,"stimulus":"stimuli/13.jpg","button_pressed":null,"name":"noRating","trial_type":"image-button-response","trial_index":145,"time_elapsed":537850,"internal_node_id":"0.0-145.0","participant_id":"AK4WZEW584BR9"},{"rt":1684,"stimulus":"stimuli/13.jpg","button_pressed":"2","name":"valence","trial_type":"image-button-response","trial_index":146,"time_elapsed":539535,"internal_node_id":"0.0-146.0","participant_id":"AK4WZEW584BR9"},{"rt":2738,"response":"51","name":"rating","trial_type":"image-slider-response","trial_index":147,"time_elapsed":542274,"internal_node_id":"0.0-147.0","participant_id":"AK4WZEW584BR9"},{"rt":2550,"stimulus":"stimuli/13.jpg","button_pressed":"0","name":"emotionType","trial_type":"image-button-response","trial_index":148,"time_elapsed":544824,"internal_node_id":"0.0-148.0","participant_id":"AK4WZEW584BR9"},{"rt":null,"stimulus":"<p style=\"font-size: 48px;\">+</p>","key_press":null,"Name":"fixation","trial_type":"html-keyboard-response","trial_index":149,"time_elapsed":545326,"internal_node_id":"0.0-149.0","participant_id":"AK4WZEW584BR9"},{"rt":null,"stimulus":"stimuli/71.jpg","button_pressed":null,"name":"noRating","trial_type":"image-button-response","trial_index":150,"time_elapsed":550328,"internal_node_id":"0.0-150.0","participant_id":"AK4WZEW584BR9"},{"rt":1464,"stimulus":"stimuli/71.jpg","button_pressed":"2","name":"valence","trial_type":"image-button-response","trial_index":151,"time_elapsed":551792,"internal_node_id":"0.0-151.0","participant_id":"AK4WZEW584BR9"},{"rt":2085,"response":"49","name":"rating","trial_type":"image-slider-response","trial_index":152,"time_elapsed":553878,"internal_node_id":"0.0-152.0","participant_id":"AK4WZEW584BR9"},{"rt":2157,"stimulus":"stimuli/71.jpg","button_pressed":"0","name":"emotionType","trial_type":"image-button-response","trial_index":153,"time_elapsed":556036,"internal_node_id":"0.0-153.0","participant_id":"AK4WZEW584BR9"},{"rt":null,"stimulus":"<p style=\"font-size: 48px;\">+</p>","key_press":null,"Name":"fixation","trial_type":"html-keyboard-response","trial_index":154,"time_elapsed":557038,"internal_node_id":"0.0-154.0","participant_id":"AK4WZEW584BR9"},{"rt":null,"stimulus":"stimuli/60.jpg","button_pressed":null,"name":"noRating","trial_type":"image-button-response","trial_index":155,"time_elapsed":562039,"internal_node_id":"0.0-155.0","participant_id":"AK4WZEW584BR9"},{"rt":1936,"stimulus":"stimuli/60.jpg","button_pressed":"0","name":"valence","trial_type":"image-button-response","trial_index":156,"time_elapsed":563976,"internal_node_id":"0.0-156.0","participant_id":"AK4WZEW584BR9"},{"rt":2398,"response":"100","name":"rating","trial_type":"image-slider-response","trial_index":157,"time_elapsed":566376,"internal_node_id":"0.0-157.0","participant_id":"AK4WZEW584BR9"},{"rt":1437,"stimulus":"stimuli/60.jpg","button_pressed":"0","name":"emotionType","trial_type":"image-button-response","trial_index":158,"time_elapsed":567813,"internal_node_id":"0.0-158.0","participant_id":"AK4WZEW584BR9"},{"rt":null,"stimulus":"<p style=\"font-size: 48px;\">+</p>","key_press":null,"Name":"fixation","trial_type":"html-keyboard-response","trial_index":159,"time_elapsed":568814,"internal_node_id":"0.0-159.0","participant_id":"AK4WZEW584BR9"},{"rt":null,"stimulus":"stimuli/45.jpg","button_pressed":null,"name":"noRating","trial_type":"image-button-response","trial_index":160,"time_elapsed":573815,"internal_node_id":"0.0-160.0","participant_id":"AK4WZEW584BR9"},{"rt":1430,"stimulus":"stimuli/45.jpg","button_pressed":"0","name":"valence","trial_type":"image-button-response","trial_index":161,"time_elapsed":575246,"internal_node_id":"0.0-161.0","participant_id":"AK4WZEW584BR9"},{"rt":1821,"response":"98","name":"rating","trial_type":"image-slider-response","trial_index":162,"time_elapsed":577067,"internal_node_id":"0.0-162.0","participant_id":"AK4WZEW584BR9"},{"rt":1389,"stimulus":"stimuli/45.jpg","button_pressed":"1","name":"emotionType","trial_type":"image-button-response","trial_index":163,"time_elapsed":578458,"internal_node_id":"0.0-163.0","participant_id":"AK4WZEW584BR9"},{"rt":3234,"stimulus":"stimuli/ins/Slide8.JPG","button_pressed":"0","trial_type":"image-button-response","trial_index":164,"time_elapsed":581693,"internal_node_id":"0.0-164.0","participant_id":"AK4WZEW584BR9"}]