[{"rt":14735,"responses":"{\"Q0\":\"AKJ22H1NTVIQX\"}","trial_type":"survey-text","trial_index":0,"time_elapsed":14737,"internal_node_id":"0.0-0.0-0.0","participant_id":"AKJ22H1NTVIQX"},{"rt":8342,"stimulus":"stimuli/ins/Slide1.JPG","button_pressed":"0","Name":"instructions","trial_type":"image-button-response","trial_index":1,"time_elapsed":23081,"internal_node_id":"0.0-1.0","participant_id":"AKJ22H1NTVIQX"},{"rt":5175,"stimulus":"stimuli/ins/Slide2.JPG","button_pressed":"0","Name":"instructions","trial_type":"image-button-response","trial_index":2,"time_elapsed":28256,"internal_node_id":"0.0-2.0","participant_id":"AKJ22H1NTVIQX"},{"rt":9551,"stimulus":"stimuli/ins/Slide3.JPG","button_pressed":"0","Name":"instructions","trial_type":"image-button-response","trial_index":3,"time_elapsed":37809,"internal_node_id":"0.0-3.0","participant_id":"AKJ22H1NTVIQX"},{"rt":5151,"stimulus":"stimuli/ins/Slide4.JPG","button_pressed":"0","Name":"instructions","trial_type":"image-button-response","trial_index":4,"time_elapsed":42961,"internal_node_id":"0.0-4.0","participant_id":"AKJ22H1NTVIQX"},{"rt":3816,"stimulus":"stimuli/ins/Slide5.JPG","button_pressed":"0","Name":"instructions","trial_type":"image-button-response","trial_index":5,"time_elapsed":46777,"internal_node_id":"0.0-5.0","participant_id":"AKJ22H1NTVIQX"},{"rt":16895,"stimulus":"stimuli/ins/Slide6.JPG","button_pressed":"0","Name":"instructions","trial_type":"image-button-response","trial_index":6,"time_elapsed":63673,"internal_node_id":"0.0-6.0","participant_id":"AKJ22H1NTVIQX"},{"rt":3319,"stimulus":"stimuli/ins/Slide7.JPG","button_pressed":"0","Name":"instructions","trial_type":"image-button-response","trial_index":7,"time_elapsed":66993,"internal_node_id":"0.0-7.0","participant_id":"AKJ22H1NTVIQX"},{"rt":14775,"responses":"{\"Q0\":\"but\"}","trial_type":"survey-text","trial_index":8,"time_elapsed":81769,"internal_node_id":"0.0-8.0-0.0","participant_id":"AKJ22H1NTVIQX"},{"rt":null,"stimulus":"<p style=\"font-size: 48px;\">+</p>","key_press":null,"Name":"fixation","trial_type":"html-keyboard-response","trial_index":9,"time_elapsed":82771,"internal_node_id":"0.0-9.0","participant_id":"AKJ22H1NTVIQX"},{"rt":null,"stimulus":"stimuli/49.jpg","button_pressed":null,"name":"noRating","trial_type":"image-button-response","trial_index":10,"time_elapsed":87771,"internal_node_id":"0.0-10.0","participant_id":"AKJ22H1NTVIQX"},{"rt":2220,"stimulus":"stimuli/49.jpg","button_pressed":"0","name":"valence","trial_type":"image-button-response","trial_index":11,"time_elapsed":89993,"internal_node_id":"0.0-11.0","participant_id":"AKJ22H1NTVIQX"},{"rt":5254,"response":"97","name":"rating","trial_type":"image-slider-response","trial_index":12,"time_elapsed":95249,"internal_node_id":"0.0-12.0","participant_id":"AKJ22H1NTVIQX"},{"rt":3208,"stimulus":"stimuli/49.jpg","button_pressed":"0","name":"emotionType","trial_type":"image-button-response","trial_index":13,"time_elapsed":98457,"internal_node_id":"0.0-13.0","participant_id":"AKJ22H1NTVIQX"},{"rt":null,"stimulus":"<p style=\"font-size: 48px;\">+</p>","key_press":null,"Name":"fixation","trial_type":"html-keyboard-response","trial_index":14,"time_elapsed":98959,"internal_node_id":"0.0-14.0","participant_id":"AKJ22H1NTVIQX"},{"rt":null,"stimulus":"stimuli/35.jpg","button_pressed":null,"name":"noRating","trial_type":"image-button-response","trial_index":15,"time_elapsed":103961,"internal_node_id":"0.0-15.0","participant_id":"AKJ22H1NTVIQX"},{"rt":1720,"stimulus":"stimuli/35.jpg","button_pressed":"0","name":"valence","trial_type":"image-button-response","trial_index":16,"time_elapsed":105681,"internal_node_id":"0.0-16.0","participant_id":"AKJ22H1NTVIQX"},{"rt":3646,"response":"67","name":"rating","trial_type":"image-slider-response","trial_index":17,"time_elapsed":109329,"internal_node_id":"0.0-17.0","participant_id":"AKJ22H1NTVIQX"},{"rt":1848,"stimulus":"stimuli/35.jpg","button_pressed":"0","name":"emotionType","trial_type":"image-button-response","trial_index":18,"time_elapsed":111177,"internal_node_id":"0.0-18.0","participant_id":"AKJ22H1NTVIQX"},{"rt":null,"stimulus":"<p style=\"font-size: 48px;\">+</p>","key_press":null,"Name":"fixation","trial_type":"html-keyboard-response","trial_index":19,"time_elapsed":112178,"internal_node_id":"0.0-19.0","participant_id":"AKJ22H1NTVIQX"},{"rt":null,"stimulus":"stimuli/42.jpg","button_pressed":null,"name":"noRating","trial_type":"image-button-response","trial_index":20,"time_elapsed":117181,"internal_node_id":"0.0-20.0","participant_id":"AKJ22H1NTVIQX"},{"rt":2026,"stimulus":"stimuli/42.jpg","button_pressed":"0","name":"valence","trial_type":"image-button-response","trial_index":21,"time_elapsed":119209,"internal_node_id":"0.0-21.0","participant_id":"AKJ22H1NTVIQX"},{"rt":2703,"response":"69","name":"rating","trial_type":"image-slider-response","trial_index":22,"time_elapsed":121913,"internal_node_id":"0.0-22.0","participant_id":"AKJ22H1NTVIQX"},{"rt":2327,"stimulus":"stimuli/42.jpg","button_pressed":"2","name":"emotionType","trial_type":"image-button-response","trial_index":23,"time_elapsed":124241,"internal_node_id":"0.0-23.0","participant_id":"AKJ22H1NTVIQX"},{"rt":null,"stimulus":"<p style=\"font-size: 48px;\">+</p>","key_press":null,"Name":"fixation","trial_type":"html-keyboard-response","trial_index":24,"time_elapsed":125743,"internal_node_id":"0.0-24.0","participant_id":"AKJ22H1NTVIQX"},{"rt":null,"stimulus":"stimuli/44.jpg","button_pressed":null,"name":"noRating","trial_type":"image-button-response","trial_index":25,"time_elapsed":130745,"internal_node_id":"0.0-25.0","participant_id":"AKJ22H1NTVIQX"},{"rt":1471,"stimulus":"stimuli/44.jpg","button_pressed":"0","name":"valence","trial_type":"image-button-response","trial_index":26,"time_elapsed":132218,"internal_node_id":"0.0-26.0","participant_id":"AKJ22H1NTVIQX"},{"rt":2741,"response":"83","name":"rating","trial_type":"image-slider-response","trial_index":27,"time_elapsed":134961,"internal_node_id":"0.0-27.0","participant_id":"AKJ22H1NTVIQX"},{"rt":1208,"stimulus":"stimuli/44.jpg","button_pressed":"0","name":"emotionType","trial_type":"image-button-response","trial_index":28,"time_elapsed":136169,"internal_node_id":"0.0-28.0","participant_id":"AKJ22H1NTVIQX"},{"rt":null,"stimulus":"<p style=\"font-size: 48px;\">+</p>","key_press":null,"Name":"fixation","trial_type":"html-keyboard-response","trial_index":29,"time_elapsed":136670,"internal_node_id":"0.0-29.0","participant_id":"AKJ22H1NTVIQX"},{"rt":null,"stimulus":"stimuli/16.jpg","button_pressed":null,"name":"noRating","trial_type":"image-button-response","trial_index":30,"time_elapsed":141672,"internal_node_id":"0.0-30.0","participant_id":"AKJ22H1NTVIQX"},{"rt":2552,"stimulus":"stimuli/16.jpg","button_pressed":"0","name":"valence","trial_type":"image-button-response","trial_index":31,"time_elapsed":144225,"internal_node_id":"0.0-31.0","participant_id":"AKJ22H1NTVIQX"},{"rt":3071,"response":"100","name":"rating","trial_type":"image-slider-response","trial_index":32,"time_elapsed":147297,"internal_node_id":"0.0-32.0","participant_id":"AKJ22H1NTVIQX"},{"rt":11615,"stimulus":"stimuli/16.jpg","button_pressed":"1","name":"emotionType","trial_type":"image-button-response","trial_index":33,"time_elapsed":158912,"internal_node_id":"0.0-33.0","participant_id":"AKJ22H1NTVIQX"},{"rt":6703,"responses":"{\"Q0\":\"rock\"}","trial_type":"survey-text","trial_index":34,"time_elapsed":165617,"internal_node_id":"0.0-34.0-0.0","participant_id":"AKJ22H1NTVIQX"},{"rt":null,"stimulus":"<p style=\"font-size: 48px;\">+</p>","key_press":null,"Name":"fixation","trial_type":"html-keyboard-response","trial_index":35,"time_elapsed":166619,"internal_node_id":"0.0-35.0","participant_id":"AKJ22H1NTVIQX"},{"rt":null,"stimulus":"stimuli/55.jpg","button_pressed":null,"name":"noRating","trial_type":"image-button-response","trial_index":36,"time_elapsed":171622,"internal_node_id":"0.0-36.0","participant_id":"AKJ22H1NTVIQX"},{"rt":2920,"stimulus":"stimuli/55.jpg","button_pressed":"0","name":"valence","trial_type":"image-button-response","trial_index":37,"time_elapsed":174544,"internal_node_id":"0.0-37.0","participant_id":"AKJ22H1NTVIQX"},{"rt":5647,"response":"65","name":"rating","trial_type":"image-slider-response","trial_index":38,"time_elapsed":180192,"internal_node_id":"0.0-38.0","participant_id":"AKJ22H1NTVIQX"},{"rt":2831,"stimulus":"stimuli/55.jpg","button_pressed":"0","name":"emotionType","trial_type":"image-button-response","trial_index":39,"time_elapsed":183024,"internal_node_id":"0.0-39.0","participant_id":"AKJ22H1NTVIQX"},{"rt":null,"stimulus":"<p style=\"font-size: 48px;\">+</p>","key_press":null,"Name":"fixation","trial_type":"html-keyboard-response","trial_index":40,"time_elapsed":184527,"internal_node_id":"0.0-40.0","participant_id":"AKJ22H1NTVIQX"},{"rt":null,"stimulus":"stimuli/30.jpg","button_pressed":null,"name":"noRating","trial_type":"image-button-response","trial_index":41,"time_elapsed":189528,"internal_node_id":"0.0-41.0","participant_id":"AKJ22H1NTVIQX"},{"rt":1192,"stimulus":"stimuli/30.jpg","button_pressed":"0","name":"valence","trial_type":"image-button-response","trial_index":42,"time_elapsed":190721,"internal_node_id":"0.0-42.0","participant_id":"AKJ22H1NTVIQX"},{"rt":3951,"response":"91","name":"rating","trial_type":"image-slider-response","trial_index":43,"time_elapsed":194672,"internal_node_id":"0.0-43.0","participant_id":"AKJ22H1NTVIQX"},{"rt":1735,"stimulus":"stimuli/30.jpg","button_pressed":"0","name":"emotionType","trial_type":"image-button-response","trial_index":44,"time_elapsed":196408,"internal_node_id":"0.0-44.0","participant_id":"AKJ22H1NTVIQX"},{"rt":null,"stimulus":"<p style=\"font-size: 48px;\">+</p>","key_press":null,"Name":"fixation","trial_type":"html-keyboard-response","trial_index":45,"time_elapsed":197409,"internal_node_id":"0.0-45.0","participant_id":"AKJ22H1NTVIQX"},{"rt":null,"stimulus":"stimuli/23.jpg","button_pressed":null,"name":"noRating","trial_type":"image-button-response","trial_index":46,"time_elapsed":202411,"internal_node_id":"0.0-46.0","participant_id":"AKJ22H1NTVIQX"},{"rt":6389,"stimulus":"stimuli/23.jpg","button_pressed":"0","name":"valence","trial_type":"image-button-response","trial_index":47,"time_elapsed":208801,"internal_node_id":"0.0-47.0","participant_id":"AKJ22H1NTVIQX"},{"rt":2694,"response":"92","name":"rating","trial_type":"image-slider-response","trial_index":48,"time_elapsed":211496,"internal_node_id":"0.0-48.0","participant_id":"AKJ22H1NTVIQX"},{"rt":856,"stimulus":"stimuli/23.jpg","button_pressed":"1","name":"emotionType","trial_type":"image-button-response","trial_index":49,"time_elapsed":212353,"internal_node_id":"0.0-49.0","participant_id":"AKJ22H1NTVIQX"},{"rt":null,"stimulus":"<p style=\"font-size: 48px;\">+</p>","key_press":null,"Name":"fixation","trial_type":"html-keyboard-response","trial_index":50,"time_elapsed":212854,"internal_node_id":"0.0-50.0","participant_id":"AKJ22H1NTVIQX"},{"rt":null,"stimulus":"stimuli/17.jpg","button_pressed":null,"name":"noRating","trial_type":"image-button-response","trial_index":51,"time_elapsed":217857,"internal_node_id":"0.0-51.0","participant_id":"AKJ22H1NTVIQX"},{"rt":1695,"stimulus":"stimuli/17.jpg","button_pressed":"0","name":"valence","trial_type":"image-button-response","trial_index":52,"time_elapsed":219553,"internal_node_id":"0.0-52.0","participant_id":"AKJ22H1NTVIQX"},{"rt":3055,"response":"84","name":"rating","trial_type":"image-slider-response","trial_index":53,"time_elapsed":222609,"internal_node_id":"0.0-53.0","participant_id":"AKJ22H1NTVIQX"},{"rt":4254,"stimulus":"stimuli/17.jpg","button_pressed":"1","name":"emotionType","trial_type":"image-button-response","trial_index":54,"time_elapsed":226865,"internal_node_id":"0.0-54.0","participant_id":"AKJ22H1NTVIQX"},{"rt":null,"stimulus":"<p style=\"font-size: 48px;\">+</p>","key_press":null,"Name":"fixation","trial_type":"html-keyboard-response","trial_index":55,"time_elapsed":227367,"internal_node_id":"0.0-55.0","participant_id":"AKJ22H1NTVIQX"},{"rt":null,"stimulus":"stimuli/15.jpg","button_pressed":null,"name":"noRating","trial_type":"image-button-response","trial_index":56,"time_elapsed":232368,"internal_node_id":"0.0-56.0","participant_id":"AKJ22H1NTVIQX"},{"rt":2544,"stimulus":"stimuli/15.jpg","button_pressed":"0","name":"valence","trial_type":"image-button-response","trial_index":57,"time_elapsed":234913,"internal_node_id":"0.0-57.0","participant_id":"AKJ22H1NTVIQX"},{"rt":3304,"response":"88","name":"rating","trial_type":"image-slider-response","trial_index":58,"time_elapsed":238217,"internal_node_id":"0.0-58.0","participant_id":"AKJ22H1NTVIQX"},{"rt":1600,"stimulus":"stimuli/15.jpg","button_pressed":"1","name":"emotionType","trial_type":"image-button-response","trial_index":59,"time_elapsed":239817,"internal_node_id":"0.0-59.0","participant_id":"AKJ22H1NTVIQX"},{"rt":6527,"responses":"{\"Q0\":\"sky\"}","trial_type":"survey-text","trial_index":60,"time_elapsed":246345,"internal_node_id":"0.0-60.0-0.0","participant_id":"AKJ22H1NTVIQX"},{"rt":null,"stimulus":"<p style=\"font-size: 48px;\">+</p>","key_press":null,"Name":"fixation","trial_type":"html-keyboard-response","trial_index":61,"time_elapsed":247846,"internal_node_id":"0.0-61.0","participant_id":"AKJ22H1NTVIQX"},{"rt":null,"stimulus":"stimuli/50.jpg","button_pressed":null,"name":"noRating","trial_type":"image-button-response","trial_index":62,"time_elapsed":252849,"internal_node_id":"0.0-62.0","participant_id":"AKJ22H1NTVIQX"},{"rt":1240,"stimulus":"stimuli/50.jpg","button_pressed":"0","name":"valence","trial_type":"image-button-response","trial_index":63,"time_elapsed":254089,"internal_node_id":"0.0-63.0","participant_id":"AKJ22H1NTVIQX"},{"rt":2815,"response":"91","name":"rating","trial_type":"image-slider-response","trial_index":64,"time_elapsed":256905,"internal_node_id":"0.0-64.0","participant_id":"AKJ22H1NTVIQX"},{"rt":1487,"stimulus":"stimuli/50.jpg","button_pressed":"0","name":"emotionType","trial_type":"image-button-response","trial_index":65,"time_elapsed":258394,"internal_node_id":"0.0-65.0","participant_id":"AKJ22H1NTVIQX"},{"rt":null,"stimulus":"<p style=\"font-size: 48px;\">+</p>","key_press":null,"Name":"fixation","trial_type":"html-keyboard-response","trial_index":66,"time_elapsed":258896,"internal_node_id":"0.0-66.0","participant_id":"AKJ22H1NTVIQX"},{"rt":null,"stimulus":"stimuli/52.jpg","button_pressed":null,"name":"noRating","trial_type":"image-button-response","trial_index":67,"time_elapsed":263898,"internal_node_id":"0.0-67.0","participant_id":"AKJ22H1NTVIQX"},{"rt":1845,"stimulus":"stimuli/52.jpg","button_pressed":"0","name":"valence","trial_type":"image-button-response","trial_index":68,"time_elapsed":265745,"internal_node_id":"0.0-68.0","participant_id":"AKJ22H1NTVIQX"},{"rt":2120,"response":"99","name":"rating","trial_type":"image-slider-response","trial_index":69,"time_elapsed":267865,"internal_node_id":"0.0-69.0","participant_id":"AKJ22H1NTVIQX"},{"rt":1327,"stimulus":"stimuli/52.jpg","button_pressed":"0","name":"emotionType","trial_type":"image-button-response","trial_index":70,"time_elapsed":269193,"internal_node_id":"0.0-70.0","participant_id":"AKJ22H1NTVIQX"},{"rt":null,"stimulus":"<p style=\"font-size: 48px;\">+</p>","key_press":null,"Name":"fixation","trial_type":"html-keyboard-response","trial_index":71,"time_elapsed":269693,"internal_node_id":"0.0-71.0","participant_id":"AKJ22H1NTVIQX"},{"rt":null,"stimulus":"stimuli/10.jpg","button_pressed":null,"name":"noRating","trial_type":"image-button-response","trial_index":72,"time_elapsed":274695,"internal_node_id":"0.0-72.0","participant_id":"AKJ22H1NTVIQX"},{"rt":1706,"stimulus":"stimuli/10.jpg","button_pressed":"0","name":"valence","trial_type":"image-button-response","trial_index":73,"time_elapsed":276401,"internal_node_id":"0.0-73.0","participant_id":"AKJ22H1NTVIQX"},{"rt":3063,"response":"79","name":"rating","trial_type":"image-slider-response","trial_index":74,"time_elapsed":279464,"internal_node_id":"0.0-74.0","participant_id":"AKJ22H1NTVIQX"},{"rt":1399,"stimulus":"stimuli/10.jpg","button_pressed":"0","name":"emotionType","trial_type":"image-button-response","trial_index":75,"time_elapsed":280865,"internal_node_id":"0.0-75.0","participant_id":"AKJ22H1NTVIQX"},{"rt":null,"stimulus":"<p style=\"font-size: 48px;\">+</p>","key_press":null,"Name":"fixation","trial_type":"html-keyboard-response","trial_index":76,"time_elapsed":281865,"internal_node_id":"0.0-76.0","participant_id":"AKJ22H1NTVIQX"},{"rt":null,"stimulus":"stimuli/69.jpg","button_pressed":null,"name":"noRating","trial_type":"image-button-response","trial_index":77,"time_elapsed":286866,"internal_node_id":"0.0-77.0","participant_id":"AKJ22H1NTVIQX"},{"rt":878,"stimulus":"stimuli/69.jpg","button_pressed":"0","name":"valence","trial_type":"image-button-response","trial_index":78,"time_elapsed":287744,"internal_node_id":"0.0-78.0","participant_id":"AKJ22H1NTVIQX"},{"rt":2576,"response":"91","name":"rating","trial_type":"image-slider-response","trial_index":79,"time_elapsed":290321,"internal_node_id":"0.0-79.0","participant_id":"AKJ22H1NTVIQX"},{"rt":1526,"stimulus":"stimuli/69.jpg","button_pressed":"0","name":"emotionType","trial_type":"image-button-response","trial_index":80,"time_elapsed":291848,"internal_node_id":"0.0-80.0","participant_id":"AKJ22H1NTVIQX"},{"rt":null,"stimulus":"<p style=\"font-size: 48px;\">+</p>","key_press":null,"Name":"fixation","trial_type":"html-keyboard-response","trial_index":81,"time_elapsed":293350,"internal_node_id":"0.0-81.0","participant_id":"AKJ22H1NTVIQX"},{"rt":null,"stimulus":"stimuli/32.jpg","button_pressed":null,"name":"noRating","trial_type":"image-button-response","trial_index":82,"time_elapsed":298352,"internal_node_id":"0.0-82.0","participant_id":"AKJ22H1NTVIQX"},{"rt":1168,"stimulus":"stimuli/32.jpg","button_pressed":"0","name":"valence","trial_type":"image-button-response","trial_index":83,"time_elapsed":299520,"internal_node_id":"0.0-83.0","participant_id":"AKJ22H1NTVIQX"},{"rt":1328,"response":"0","name":"rating","trial_type":"image-slider-response","trial_index":84,"time_elapsed":300849,"internal_node_id":"0.0-84.0","participant_id":"AKJ22H1NTVIQX"},{"rt":5776,"stimulus":"stimuli/32.jpg","button_pressed":"0","name":"emotionType","trial_type":"image-button-response","trial_index":85,"time_elapsed":325841,"internal_node_id":"0.0-85.0","participant_id":"AKJ22H1NTVIQX"},{"rt":5470,"responses":"{\"Q0\":\"our\"}","trial_type":"survey-text","trial_index":86,"time_elapsed":331313,"internal_node_id":"0.0-86.0-0.0","participant_id":"AKJ22H1NTVIQX"},{"rt":null,"stimulus":"<p style=\"font-size: 48px;\">+</p>","key_press":null,"Name":"fixation","trial_type":"html-keyboard-response","trial_index":87,"time_elapsed":331813,"internal_node_id":"0.0-87.0","participant_id":"AKJ22H1NTVIQX"},{"rt":null,"stimulus":"stimuli/9.jpg","button_pressed":null,"name":"noRating","trial_type":"image-button-response","trial_index":88,"time_elapsed":336814,"internal_node_id":"0.0-88.0","participant_id":"AKJ22H1NTVIQX"},{"rt":984,"stimulus":"stimuli/9.jpg","button_pressed":"0","name":"valence","trial_type":"image-button-response","trial_index":89,"time_elapsed":337800,"internal_node_id":"0.0-89.0","participant_id":"AKJ22H1NTVIQX"},{"rt":4272,"response":"50","name":"rating","trial_type":"image-slider-response","trial_index":90,"time_elapsed":342073,"internal_node_id":"0.0-90.0","participant_id":"AKJ22H1NTVIQX"},{"rt":7039,"stimulus":"stimuli/9.jpg","button_pressed":"1","name":"emotionType","trial_type":"image-button-response","trial_index":91,"time_elapsed":349114,"internal_node_id":"0.0-91.0","participant_id":"AKJ22H1NTVIQX"},{"rt":null,"stimulus":"<p style=\"font-size: 48px;\">+</p>","key_press":null,"Name":"fixation","trial_type":"html-keyboard-response","trial_index":92,"time_elapsed":350614,"internal_node_id":"0.0-92.0","participant_id":"AKJ22H1NTVIQX"},{"rt":null,"stimulus":"stimuli/1.jpg","button_pressed":null,"name":"noRating","trial_type":"image-button-response","trial_index":93,"time_elapsed":355616,"internal_node_id":"0.0-93.0","participant_id":"AKJ22H1NTVIQX"},{"rt":2118,"stimulus":"stimuli/1.jpg","button_pressed":"0","name":"valence","trial_type":"image-button-response","trial_index":94,"time_elapsed":357737,"internal_node_id":"0.0-94.0","participant_id":"AKJ22H1NTVIQX"},{"rt":2472,"response":"96","name":"rating","trial_type":"image-slider-response","trial_index":95,"time_elapsed":360209,"internal_node_id":"0.0-95.0","participant_id":"AKJ22H1NTVIQX"},{"rt":3055,"stimulus":"stimuli/1.jpg","button_pressed":"0","name":"emotionType","trial_type":"image-button-response","trial_index":96,"time_elapsed":363265,"internal_node_id":"0.0-96.0","participant_id":"AKJ22H1NTVIQX"},{"rt":null,"stimulus":"<p style=\"font-size: 48px;\">+</p>","key_press":null,"Name":"fixation","trial_type":"html-keyboard-response","trial_index":97,"time_elapsed":364268,"internal_node_id":"0.0-97.0","participant_id":"AKJ22H1NTVIQX"},{"rt":null,"stimulus":"stimuli/67.jpg","button_pressed":null,"name":"noRating","trial_type":"image-button-response","trial_index":98,"time_elapsed":369270,"internal_node_id":"0.0-98.0","participant_id":"AKJ22H1NTVIQX"},{"rt":1419,"stimulus":"stimuli/67.jpg","button_pressed":"0","name":"valence","trial_type":"image-button-response","trial_index":99,"time_elapsed":370690,"internal_node_id":"0.0-99.0","participant_id":"AKJ22H1NTVIQX"},{"rt":1879,"response":"82","name":"rating","trial_type":"image-slider-response","trial_index":100,"time_elapsed":372569,"internal_node_id":"0.0-100.0","participant_id":"AKJ22H1NTVIQX"},{"rt":999,"stimulus":"stimuli/67.jpg","button_pressed":"0","name":"emotionType","trial_type":"image-button-response","trial_index":101,"time_elapsed":373569,"internal_node_id":"0.0-101.0","participant_id":"AKJ22H1NTVIQX"},{"rt":null,"stimulus":"<p style=\"font-size: 48px;\">+</p>","key_press":null,"Name":"fixation","trial_type":"html-keyboard-response","trial_index":102,"time_elapsed":375070,"internal_node_id":"0.0-102.0","participant_id":"AKJ22H1NTVIQX"},{"rt":null,"stimulus":"stimuli/12.jpg","button_pressed":null,"name":"noRating","trial_type":"image-button-response","trial_index":103,"time_elapsed":380072,"internal_node_id":"0.0-103.0","participant_id":"AKJ22H1NTVIQX"},{"rt":1944,"stimulus":"stimuli/12.jpg","button_pressed":"0","name":"valence","trial_type":"image-button-response","trial_index":104,"time_elapsed":382017,"internal_node_id":"0.0-104.0","participant_id":"AKJ22H1NTVIQX"},{"rt":4007,"response":"58","name":"rating","trial_type":"image-slider-response","trial_index":105,"time_elapsed":386025,"internal_node_id":"0.0-105.0","participant_id":"AKJ22H1NTVIQX"},{"rt":6583,"stimulus":"stimuli/12.jpg","button_pressed":"0","name":"emotionType","trial_type":"image-button-response","trial_index":106,"time_elapsed":392610,"internal_node_id":"0.0-106.0","participant_id":"AKJ22H1NTVIQX"},{"rt":null,"stimulus":"<p style=\"font-size: 48px;\">+</p>","key_press":null,"Name":"fixation","trial_type":"html-keyboard-response","trial_index":107,"time_elapsed":393111,"internal_node_id":"0.0-107.0","participant_id":"AKJ22H1NTVIQX"},{"rt":null,"stimulus":"stimuli/31.jpg","button_pressed":null,"name":"noRating","trial_type":"image-button-response","trial_index":108,"time_elapsed":398112,"internal_node_id":"0.0-108.0","participant_id":"AKJ22H1NTVIQX"},{"rt":2202,"stimulus":"stimuli/31.jpg","button_pressed":"0","name":"valence","trial_type":"image-button-response","trial_index":109,"time_elapsed":400315,"internal_node_id":"0.0-109.0","participant_id":"AKJ22H1NTVIQX"},{"rt":2004,"response":"75","name":"rating","trial_type":"image-slider-response","trial_index":110,"time_elapsed":402321,"internal_node_id":"0.0-110.0","participant_id":"AKJ22H1NTVIQX"},{"rt":1063,"stimulus":"stimuli/31.jpg","button_pressed":"1","name":"emotionType","trial_type":"image-button-response","trial_index":111,"time_elapsed":403385,"internal_node_id":"0.0-111.0","participant_id":"AKJ22H1NTVIQX"},{"rt":5752,"responses":"{\"Q0\":\"course\"}","trial_type":"survey-text","trial_index":112,"time_elapsed":409137,"internal_node_id":"0.0-112.0-0.0","participant_id":"AKJ22H1NTVIQX"},{"rt":null,"stimulus":"<p style=\"font-size: 48px;\">+</p>","key_press":null,"Name":"fixation","trial_type":"html-keyboard-response","trial_index":113,"time_elapsed":409639,"internal_node_id":"0.0-113.0","participant_id":"AKJ22H1NTVIQX"},{"rt":null,"stimulus":"stimuli/34.jpg","button_pressed":null,"name":"noRating","trial_type":"image-button-response","trial_index":114,"time_elapsed":414642,"internal_node_id":"0.0-114.0","participant_id":"AKJ22H1NTVIQX"},{"rt":2310,"stimulus":"stimuli/34.jpg","button_pressed":"0","name":"valence","trial_type":"image-button-response","trial_index":115,"time_elapsed":416953,"internal_node_id":"0.0-115.0","participant_id":"AKJ22H1NTVIQX"},{"rt":1878,"response":"56","name":"rating","trial_type":"image-slider-response","trial_index":116,"time_elapsed":418833,"internal_node_id":"0.0-116.0","participant_id":"AKJ22H1NTVIQX"},{"rt":2632,"stimulus":"stimuli/34.jpg","button_pressed":"1","name":"emotionType","trial_type":"image-button-response","trial_index":117,"time_elapsed":421465,"internal_node_id":"0.0-117.0","participant_id":"AKJ22H1NTVIQX"},{"rt":null,"stimulus":"<p style=\"font-size: 48px;\">+</p>","key_press":null,"Name":"fixation","trial_type":"html-keyboard-response","trial_index":118,"time_elapsed":421967,"internal_node_id":"0.0-118.0","participant_id":"AKJ22H1NTVIQX"},{"rt":null,"stimulus":"stimuli/22.jpg","button_pressed":null,"name":"noRating","trial_type":"image-button-response","trial_index":119,"time_elapsed":426969,"internal_node_id":"0.0-119.0","participant_id":"AKJ22H1NTVIQX"},{"rt":918,"stimulus":"stimuli/22.jpg","button_pressed":"0","name":"valence","trial_type":"image-button-response","trial_index":120,"time_elapsed":427889,"internal_node_id":"0.0-120.0","participant_id":"AKJ22H1NTVIQX"},{"rt":2870,"response":"60","name":"rating","trial_type":"image-slider-response","trial_index":121,"time_elapsed":430761,"internal_node_id":"0.0-121.0","participant_id":"AKJ22H1NTVIQX"},{"rt":1743,"stimulus":"stimuli/22.jpg","button_pressed":"1","name":"emotionType","trial_type":"image-button-response","trial_index":122,"time_elapsed":432505,"internal_node_id":"0.0-122.0","participant_id":"AKJ22H1NTVIQX"},{"rt":null,"stimulus":"<p style=\"font-size: 48px;\">+</p>","key_press":null,"Name":"fixation","trial_type":"html-keyboard-response","trial_index":123,"time_elapsed":433007,"internal_node_id":"0.0-123.0","participant_id":"AKJ22H1NTVIQX"},{"rt":null,"stimulus":"stimuli/56.jpg","button_pressed":null,"name":"noRating","trial_type":"image-button-response","trial_index":124,"time_elapsed":438009,"internal_node_id":"0.0-124.0","participant_id":"AKJ22H1NTVIQX"},{"rt":1838,"stimulus":"stimuli/56.jpg","button_pressed":"0","name":"valence","trial_type":"image-button-response","trial_index":125,"time_elapsed":439849,"internal_node_id":"0.0-125.0","participant_id":"AKJ22H1NTVIQX"},{"rt":2054,"response":"53","name":"rating","trial_type":"image-slider-response","trial_index":126,"time_elapsed":441905,"internal_node_id":"0.0-126.0","participant_id":"AKJ22H1NTVIQX"},{"rt":1327,"stimulus":"stimuli/56.jpg","button_pressed":"2","name":"emotionType","trial_type":"image-button-response","trial_index":127,"time_elapsed":443233,"internal_node_id":"0.0-127.0","participant_id":"AKJ22H1NTVIQX"},{"rt":null,"stimulus":"<p style=\"font-size: 48px;\">+</p>","key_press":null,"Name":"fixation","trial_type":"html-keyboard-response","trial_index":128,"time_elapsed":444735,"internal_node_id":"0.0-128.0","participant_id":"AKJ22H1NTVIQX"},{"rt":null,"stimulus":"stimuli/57.jpg","button_pressed":null,"name":"noRating","trial_type":"image-button-response","trial_index":129,"time_elapsed":449737,"internal_node_id":"0.0-129.0","participant_id":"AKJ22H1NTVIQX"},{"rt":2096,"stimulus":"stimuli/57.jpg","button_pressed":"0","name":"valence","trial_type":"image-button-response","trial_index":130,"time_elapsed":451833,"internal_node_id":"0.0-130.0","participant_id":"AKJ22H1NTVIQX"},{"rt":1895,"response":"27","name":"rating","trial_type":"image-slider-response","trial_index":131,"time_elapsed":453729,"internal_node_id":"0.0-131.0","participant_id":"AKJ22H1NTVIQX"},{"rt":1216,"stimulus":"stimuli/57.jpg","button_pressed":"2","name":"emotionType","trial_type":"image-button-response","trial_index":132,"time_elapsed":454945,"internal_node_id":"0.0-132.0","participant_id":"AKJ22H1NTVIQX"},{"rt":null,"stimulus":"<p style=\"font-size: 48px;\">+</p>","key_press":null,"Name":"fixation","trial_type":"html-keyboard-response","trial_index":133,"time_elapsed":455447,"internal_node_id":"0.0-133.0","participant_id":"AKJ22H1NTVIQX"},{"rt":null,"stimulus":"stimuli/53.jpg","button_pressed":null,"name":"noRating","trial_type":"image-button-response","trial_index":134,"time_elapsed":460449,"internal_node_id":"0.0-134.0","participant_id":"AKJ22H1NTVIQX"},{"rt":1128,"stimulus":"stimuli/53.jpg","button_pressed":"0","name":"valence","trial_type":"image-button-response","trial_index":135,"time_elapsed":461577,"internal_node_id":"0.0-135.0","participant_id":"AKJ22H1NTVIQX"},{"rt":2448,"response":"37","name":"rating","trial_type":"image-slider-response","trial_index":136,"time_elapsed":464025,"internal_node_id":"0.0-136.0","participant_id":"AKJ22H1NTVIQX"},{"rt":1416,"stimulus":"stimuli/53.jpg","button_pressed":"1","name":"emotionType","trial_type":"image-button-response","trial_index":137,"time_elapsed":465441,"internal_node_id":"0.0-137.0","participant_id":"AKJ22H1NTVIQX"},{"rt":5391,"responses":"{\"Q0\":\"we\"}","trial_type":"survey-text","trial_index":138,"time_elapsed":470834,"internal_node_id":"0.0-138.0-0.0","participant_id":"AKJ22H1NTVIQX"},{"rt":null,"stimulus":"<p style=\"font-size: 48px;\">+</p>","key_press":null,"Name":"fixation","trial_type":"html-keyboard-response","trial_index":139,"time_elapsed":471837,"internal_node_id":"0.0-139.0","participant_id":"AKJ22H1NTVIQX"},{"rt":null,"stimulus":"stimuli/51.jpg","button_pressed":null,"name":"noRating","trial_type":"image-button-response","trial_index":140,"time_elapsed":476838,"internal_node_id":"0.0-140.0","participant_id":"AKJ22H1NTVIQX"},{"rt":1482,"stimulus":"stimuli/51.jpg","button_pressed":"0","name":"valence","trial_type":"image-button-response","trial_index":141,"time_elapsed":478321,"internal_node_id":"0.0-141.0","participant_id":"AKJ22H1NTVIQX"},{"rt":9383,"response":"100","name":"rating","trial_type":"image-slider-response","trial_index":142,"time_elapsed":487705,"internal_node_id":"0.0-142.0","participant_id":"AKJ22H1NTVIQX"},{"rt":10687,"stimulus":"stimuli/51.jpg","button_pressed":"1","name":"emotionType","trial_type":"image-button-response","trial_index":143,"time_elapsed":498393,"internal_node_id":"0.0-143.0","participant_id":"AKJ22H1NTVIQX"},{"rt":null,"stimulus":"<p style=\"font-size: 48px;\">+</p>","key_press":null,"Name":"fixation","trial_type":"html-keyboard-response","trial_index":144,"time_elapsed":499395,"internal_node_id":"0.0-144.0","participant_id":"AKJ22H1NTVIQX"},{"rt":null,"stimulus":"stimuli/36.jpg","button_pressed":null,"name":"noRating","trial_type":"image-button-response","trial_index":145,"time_elapsed":504397,"internal_node_id":"0.0-145.0","participant_id":"AKJ22H1NTVIQX"},{"rt":1820,"stimulus":"stimuli/36.jpg","button_pressed":"0","name":"valence","trial_type":"image-button-response","trial_index":146,"time_elapsed":506217,"internal_node_id":"0.0-146.0","participant_id":"AKJ22H1NTVIQX"},{"rt":4863,"response":"70","name":"rating","trial_type":"image-slider-response","trial_index":147,"time_elapsed":511081,"internal_node_id":"0.0-147.0","participant_id":"AKJ22H1NTVIQX"},{"rt":968,"stimulus":"stimuli/36.jpg","button_pressed":"1","name":"emotionType","trial_type":"image-button-response","trial_index":148,"time_elapsed":512049,"internal_node_id":"0.0-148.0","participant_id":"AKJ22H1NTVIQX"},{"rt":null,"stimulus":"<p style=\"font-size: 48px;\">+</p>","key_press":null,"Name":"fixation","trial_type":"html-keyboard-response","trial_index":149,"time_elapsed":512550,"internal_node_id":"0.0-149.0","participant_id":"AKJ22H1NTVIQX"},{"rt":null,"stimulus":"stimuli/6.jpg","button_pressed":null,"name":"noRating","trial_type":"image-button-response","trial_index":150,"time_elapsed":517551,"internal_node_id":"0.0-150.0","participant_id":"AKJ22H1NTVIQX"},{"rt":1009,"stimulus":"stimuli/6.jpg","button_pressed":"0","name":"valence","trial_type":"image-button-response","trial_index":151,"time_elapsed":518561,"internal_node_id":"0.0-151.0","participant_id":"AKJ22H1NTVIQX"},{"rt":1903,"response":"82","name":"rating","trial_type":"image-slider-response","trial_index":152,"time_elapsed":520465,"internal_node_id":"0.0-152.0","participant_id":"AKJ22H1NTVIQX"},{"rt":2911,"stimulus":"stimuli/6.jpg","button_pressed":"1","name":"emotionType","trial_type":"image-button-response","trial_index":153,"time_elapsed":523377,"internal_node_id":"0.0-153.0","participant_id":"AKJ22H1NTVIQX"},{"rt":null,"stimulus":"<p style=\"font-size: 48px;\">+</p>","key_press":null,"Name":"fixation","trial_type":"html-keyboard-response","trial_index":154,"time_elapsed":524878,"internal_node_id":"0.0-154.0","participant_id":"AKJ22H1NTVIQX"},{"rt":null,"stimulus":"stimuli/11.jpg","button_pressed":null,"name":"noRating","trial_type":"image-button-response","trial_index":155,"time_elapsed":529879,"internal_node_id":"0.0-155.0","participant_id":"AKJ22H1NTVIQX"},{"rt":2184,"stimulus":"stimuli/11.jpg","button_pressed":"0","name":"valence","trial_type":"image-button-response","trial_index":156,"time_elapsed":532064,"internal_node_id":"0.0-156.0","participant_id":"AKJ22H1NTVIQX"},{"rt":4439,"response":"61","name":"rating","trial_type":"image-slider-response","trial_index":157,"time_elapsed":536504,"internal_node_id":"0.0-157.0","participant_id":"AKJ22H1NTVIQX"},{"rt":4928,"stimulus":"stimuli/11.jpg","button_pressed":"0","name":"emotionType","trial_type":"image-button-response","trial_index":158,"time_elapsed":541433,"internal_node_id":"0.0-158.0","participant_id":"AKJ22H1NTVIQX"},{"rt":null,"stimulus":"<p style=\"font-size: 48px;\">+</p>","key_press":null,"Name":"fixation","trial_type":"html-keyboard-response","trial_index":159,"time_elapsed":541935,"internal_node_id":"0.0-159.0","participant_id":"AKJ22H1NTVIQX"},{"rt":null,"stimulus":"stimuli/62.jpg","button_pressed":null,"name":"noRating","trial_type":"image-button-response","trial_index":160,"time_elapsed":546937,"internal_node_id":"0.0-160.0","participant_id":"AKJ22H1NTVIQX"},{"rt":2063,"stimulus":"stimuli/62.jpg","button_pressed":"0","name":"valence","trial_type":"image-button-response","trial_index":161,"time_elapsed":549000,"internal_node_id":"0.0-161.0","participant_id":"AKJ22H1NTVIQX"},{"rt":2744,"response":"75","name":"rating","trial_type":"image-slider-response","trial_index":162,"time_elapsed":551745,"internal_node_id":"0.0-162.0","participant_id":"AKJ22H1NTVIQX"},{"rt":1111,"stimulus":"stimuli/62.jpg","button_pressed":"0","name":"emotionType","trial_type":"image-button-response","trial_index":163,"time_elapsed":552857,"internal_node_id":"0.0-163.0","participant_id":"AKJ22H1NTVIQX"},{"rt":4872,"stimulus":"stimuli/ins/Slide8.JPG","button_pressed":"0","trial_type":"image-button-response","trial_index":164,"time_elapsed":557729,"internal_node_id":"0.0-164.0","participant_id":"AKJ22H1NTVIQX"}]