[{"rt":12686,"responses":"{\"Q0\":\"ANK8K5WTHJ61C\"}","trial_type":"survey-text","trial_index":0,"time_elapsed":12697,"internal_node_id":"0.0-0.0-0.0","participant_id":"ANK8K5WTHJ61C"},{"rt":9187,"stimulus":"stimuli/ins/Slide1.JPG","button_pressed":"0","Name":"instructions","trial_type":"image-button-response","trial_index":1,"time_elapsed":21887,"internal_node_id":"0.0-1.0","participant_id":"ANK8K5WTHJ61C"},{"rt":5593,"stimulus":"stimuli/ins/Slide2.JPG","button_pressed":"0","Name":"instructions","trial_type":"image-button-response","trial_index":2,"time_elapsed":27481,"internal_node_id":"0.0-2.0","participant_id":"ANK8K5WTHJ61C"},{"rt":6109,"stimulus":"stimuli/ins/Slide3.JPG","button_pressed":"0","Name":"instructions","trial_type":"image-button-response","trial_index":3,"time_elapsed":33591,"internal_node_id":"0.0-3.0","participant_id":"ANK8K5WTHJ61C"},{"rt":6718,"stimulus":"stimuli/ins/Slide4.JPG","button_pressed":"0","Name":"instructions","trial_type":"image-button-response","trial_index":4,"time_elapsed":40311,"internal_node_id":"0.0-4.0","participant_id":"ANK8K5WTHJ61C"},{"rt":5034,"stimulus":"stimuli/ins/Slide5.JPG","button_pressed":"0","Name":"instructions","trial_type":"image-button-response","trial_index":5,"time_elapsed":45346,"internal_node_id":"0.0-5.0","participant_id":"ANK8K5WTHJ61C"},{"rt":20433,"stimulus":"stimuli/ins/Slide6.JPG","button_pressed":"0","Name":"instructions","trial_type":"image-button-response","trial_index":6,"time_elapsed":65781,"internal_node_id":"0.0-6.0","participant_id":"ANK8K5WTHJ61C"},{"rt":1890,"stimulus":"stimuli/ins/Slide7.JPG","button_pressed":"0","Name":"instructions","trial_type":"image-button-response","trial_index":7,"time_elapsed":67672,"internal_node_id":"0.0-7.0","participant_id":"ANK8K5WTHJ61C"},{"rt":12835,"responses":"{\"Q0\":\"but\"}","trial_type":"survey-text","trial_index":8,"time_elapsed":80509,"internal_node_id":"0.0-8.0-0.0","participant_id":"ANK8K5WTHJ61C"},{"rt":null,"stimulus":"<p style=\"font-size: 48px;\">+</p>","key_press":null,"Name":"fixation","trial_type":"html-keyboard-response","trial_index":9,"time_elapsed":82013,"internal_node_id":"0.0-9.0","participant_id":"ANK8K5WTHJ61C"},{"rt":null,"stimulus":"stimuli/3.jpg","button_pressed":null,"name":"noRating","trial_type":"image-button-response","trial_index":10,"time_elapsed":87018,"internal_node_id":"0.0-10.0","participant_id":"ANK8K5WTHJ61C"},{"rt":1813,"stimulus":"stimuli/3.jpg","button_pressed":"0","name":"valence","trial_type":"image-button-response","trial_index":11,"time_elapsed":88835,"internal_node_id":"0.0-11.0","participant_id":"ANK8K5WTHJ61C"},{"rt":4705,"response":"88","name":"rating","trial_type":"image-slider-response","trial_index":12,"time_elapsed":93541,"internal_node_id":"0.0-12.0","participant_id":"ANK8K5WTHJ61C"},{"rt":8935,"stimulus":"stimuli/3.jpg","button_pressed":"0","name":"emotionType","trial_type":"image-button-response","trial_index":13,"time_elapsed":102480,"internal_node_id":"0.0-13.0","participant_id":"ANK8K5WTHJ61C"},{"rt":null,"stimulus":"<p style=\"font-size: 48px;\">+</p>","key_press":null,"Name":"fixation","trial_type":"html-keyboard-response","trial_index":14,"time_elapsed":103984,"internal_node_id":"0.0-14.0","participant_id":"ANK8K5WTHJ61C"},{"rt":null,"stimulus":"stimuli/46.jpg","button_pressed":null,"name":"noRating","trial_type":"image-button-response","trial_index":15,"time_elapsed":108987,"internal_node_id":"0.0-15.0","participant_id":"ANK8K5WTHJ61C"},{"rt":1081,"stimulus":"stimuli/46.jpg","button_pressed":"0","name":"valence","trial_type":"image-button-response","trial_index":16,"time_elapsed":110070,"internal_node_id":"0.0-16.0","participant_id":"ANK8K5WTHJ61C"},{"rt":4542,"response":"95","name":"rating","trial_type":"image-slider-response","trial_index":17,"time_elapsed":114612,"internal_node_id":"0.0-17.0","participant_id":"ANK8K5WTHJ61C"},{"rt":2801,"stimulus":"stimuli/46.jpg","button_pressed":"1","name":"emotionType","trial_type":"image-button-response","trial_index":18,"time_elapsed":117416,"internal_node_id":"0.0-18.0","participant_id":"ANK8K5WTHJ61C"},{"rt":null,"stimulus":"<p style=\"font-size: 48px;\">+</p>","key_press":null,"Name":"fixation","trial_type":"html-keyboard-response","trial_index":19,"time_elapsed":117917,"internal_node_id":"0.0-19.0","participant_id":"ANK8K5WTHJ61C"},{"rt":null,"stimulus":"stimuli/26.jpg","button_pressed":null,"name":"noRating","trial_type":"image-button-response","trial_index":20,"time_elapsed":122921,"internal_node_id":"0.0-20.0","participant_id":"ANK8K5WTHJ61C"},{"rt":1503,"stimulus":"stimuli/26.jpg","button_pressed":"0","name":"valence","trial_type":"image-button-response","trial_index":21,"time_elapsed":124424,"internal_node_id":"0.0-21.0","participant_id":"ANK8K5WTHJ61C"},{"rt":3645,"response":"91","name":"rating","trial_type":"image-slider-response","trial_index":22,"time_elapsed":128072,"internal_node_id":"0.0-22.0","participant_id":"ANK8K5WTHJ61C"},{"rt":820,"stimulus":"stimuli/26.jpg","button_pressed":"0","name":"emotionType","trial_type":"image-button-response","trial_index":23,"time_elapsed":128894,"internal_node_id":"0.0-23.0","participant_id":"ANK8K5WTHJ61C"},{"rt":null,"stimulus":"<p style=\"font-size: 48px;\">+</p>","key_press":null,"Name":"fixation","trial_type":"html-keyboard-response","trial_index":24,"time_elapsed":129897,"internal_node_id":"0.0-24.0","participant_id":"ANK8K5WTHJ61C"},{"rt":null,"stimulus":"stimuli/31.jpg","button_pressed":null,"name":"noRating","trial_type":"image-button-response","trial_index":25,"time_elapsed":134901,"internal_node_id":"0.0-25.0","participant_id":"ANK8K5WTHJ61C"},{"rt":1438,"stimulus":"stimuli/31.jpg","button_pressed":"0","name":"valence","trial_type":"image-button-response","trial_index":26,"time_elapsed":136340,"internal_node_id":"0.0-26.0","participant_id":"ANK8K5WTHJ61C"},{"rt":3131,"response":"100","name":"rating","trial_type":"image-slider-response","trial_index":27,"time_elapsed":139472,"internal_node_id":"0.0-27.0","participant_id":"ANK8K5WTHJ61C"},{"rt":758,"stimulus":"stimuli/31.jpg","button_pressed":"1","name":"emotionType","trial_type":"image-button-response","trial_index":28,"time_elapsed":140233,"internal_node_id":"0.0-28.0","participant_id":"ANK8K5WTHJ61C"},{"rt":null,"stimulus":"<p style=\"font-size: 48px;\">+</p>","key_press":null,"Name":"fixation","trial_type":"html-keyboard-response","trial_index":29,"time_elapsed":140734,"internal_node_id":"0.0-29.0","participant_id":"ANK8K5WTHJ61C"},{"rt":null,"stimulus":"stimuli/37.jpg","button_pressed":null,"name":"noRating","trial_type":"image-button-response","trial_index":30,"time_elapsed":145740,"internal_node_id":"0.0-30.0","participant_id":"ANK8K5WTHJ61C"},{"rt":3317,"stimulus":"stimuli/37.jpg","button_pressed":"2","name":"valence","trial_type":"image-button-response","trial_index":31,"time_elapsed":149058,"internal_node_id":"0.0-31.0","participant_id":"ANK8K5WTHJ61C"},{"rt":6403,"response":"67","name":"rating","trial_type":"image-slider-response","trial_index":32,"time_elapsed":155463,"internal_node_id":"0.0-32.0","participant_id":"ANK8K5WTHJ61C"},{"rt":3626,"stimulus":"stimuli/37.jpg","button_pressed":"2","name":"emotionType","trial_type":"image-button-response","trial_index":33,"time_elapsed":159090,"internal_node_id":"0.0-33.0","participant_id":"ANK8K5WTHJ61C"},{"rt":5041,"responses":"{\"Q0\":\"rock\"}","trial_type":"survey-text","trial_index":34,"time_elapsed":164133,"internal_node_id":"0.0-34.0-0.0","participant_id":"ANK8K5WTHJ61C"},{"rt":null,"stimulus":"<p style=\"font-size: 48px;\">+</p>","key_press":null,"Name":"fixation","trial_type":"html-keyboard-response","trial_index":35,"time_elapsed":165637,"internal_node_id":"0.0-35.0","participant_id":"ANK8K5WTHJ61C"},{"rt":null,"stimulus":"stimuli/11.jpg","button_pressed":null,"name":"noRating","trial_type":"image-button-response","trial_index":36,"time_elapsed":170639,"internal_node_id":"0.0-36.0","participant_id":"ANK8K5WTHJ61C"},{"rt":1069,"stimulus":"stimuli/11.jpg","button_pressed":"0","name":"valence","trial_type":"image-button-response","trial_index":37,"time_elapsed":171710,"internal_node_id":"0.0-37.0","participant_id":"ANK8K5WTHJ61C"},{"rt":3009,"response":"63","name":"rating","trial_type":"image-slider-response","trial_index":38,"time_elapsed":174720,"internal_node_id":"0.0-38.0","participant_id":"ANK8K5WTHJ61C"},{"rt":1324,"stimulus":"stimuli/11.jpg","button_pressed":"0","name":"emotionType","trial_type":"image-button-response","trial_index":39,"time_elapsed":176046,"internal_node_id":"0.0-39.0","participant_id":"ANK8K5WTHJ61C"},{"rt":null,"stimulus":"<p style=\"font-size: 48px;\">+</p>","key_press":null,"Name":"fixation","trial_type":"html-keyboard-response","trial_index":40,"time_elapsed":177552,"internal_node_id":"0.0-40.0","participant_id":"ANK8K5WTHJ61C"},{"rt":null,"stimulus":"stimuli/12.jpg","button_pressed":null,"name":"noRating","trial_type":"image-button-response","trial_index":41,"time_elapsed":182555,"internal_node_id":"0.0-41.0","participant_id":"ANK8K5WTHJ61C"},{"rt":1100,"stimulus":"stimuli/12.jpg","button_pressed":"0","name":"valence","trial_type":"image-button-response","trial_index":42,"time_elapsed":183656,"internal_node_id":"0.0-42.0","participant_id":"ANK8K5WTHJ61C"},{"rt":2936,"response":"62","name":"rating","trial_type":"image-slider-response","trial_index":43,"time_elapsed":186594,"internal_node_id":"0.0-43.0","participant_id":"ANK8K5WTHJ61C"},{"rt":1230,"stimulus":"stimuli/12.jpg","button_pressed":"0","name":"emotionType","trial_type":"image-button-response","trial_index":44,"time_elapsed":187826,"internal_node_id":"0.0-44.0","participant_id":"ANK8K5WTHJ61C"},{"rt":null,"stimulus":"<p style=\"font-size: 48px;\">+</p>","key_press":null,"Name":"fixation","trial_type":"html-keyboard-response","trial_index":45,"time_elapsed":189330,"internal_node_id":"0.0-45.0","participant_id":"ANK8K5WTHJ61C"},{"rt":null,"stimulus":"stimuli/5.jpg","button_pressed":null,"name":"noRating","trial_type":"image-button-response","trial_index":46,"time_elapsed":194335,"internal_node_id":"0.0-46.0","participant_id":"ANK8K5WTHJ61C"},{"rt":879,"stimulus":"stimuli/5.jpg","button_pressed":"0","name":"valence","trial_type":"image-button-response","trial_index":47,"time_elapsed":195216,"internal_node_id":"0.0-47.0","participant_id":"ANK8K5WTHJ61C"},{"rt":2533,"response":"89","name":"rating","trial_type":"image-slider-response","trial_index":48,"time_elapsed":197750,"internal_node_id":"0.0-48.0","participant_id":"ANK8K5WTHJ61C"},{"rt":1547,"stimulus":"stimuli/5.jpg","button_pressed":"1","name":"emotionType","trial_type":"image-button-response","trial_index":49,"time_elapsed":199299,"internal_node_id":"0.0-49.0","participant_id":"ANK8K5WTHJ61C"},{"rt":null,"stimulus":"<p style=\"font-size: 48px;\">+</p>","key_press":null,"Name":"fixation","trial_type":"html-keyboard-response","trial_index":50,"time_elapsed":200301,"internal_node_id":"0.0-50.0","participant_id":"ANK8K5WTHJ61C"},{"rt":null,"stimulus":"stimuli/1.jpg","button_pressed":null,"name":"noRating","trial_type":"image-button-response","trial_index":51,"time_elapsed":205308,"internal_node_id":"0.0-51.0","participant_id":"ANK8K5WTHJ61C"},{"rt":1080,"stimulus":"stimuli/1.jpg","button_pressed":"0","name":"valence","trial_type":"image-button-response","trial_index":52,"time_elapsed":206388,"internal_node_id":"0.0-52.0","participant_id":"ANK8K5WTHJ61C"},{"rt":2212,"response":"80","name":"rating","trial_type":"image-slider-response","trial_index":53,"time_elapsed":208603,"internal_node_id":"0.0-53.0","participant_id":"ANK8K5WTHJ61C"},{"rt":855,"stimulus":"stimuli/1.jpg","button_pressed":"0","name":"emotionType","trial_type":"image-button-response","trial_index":54,"time_elapsed":209458,"internal_node_id":"0.0-54.0","participant_id":"ANK8K5WTHJ61C"},{"rt":null,"stimulus":"<p style=\"font-size: 48px;\">+</p>","key_press":null,"Name":"fixation","trial_type":"html-keyboard-response","trial_index":55,"time_elapsed":209960,"internal_node_id":"0.0-55.0","participant_id":"ANK8K5WTHJ61C"},{"rt":null,"stimulus":"stimuli/28.jpg","button_pressed":null,"name":"noRating","trial_type":"image-button-response","trial_index":56,"time_elapsed":214961,"internal_node_id":"0.0-56.0","participant_id":"ANK8K5WTHJ61C"},{"rt":1005,"stimulus":"stimuli/28.jpg","button_pressed":"0","name":"valence","trial_type":"image-button-response","trial_index":57,"time_elapsed":215967,"internal_node_id":"0.0-57.0","participant_id":"ANK8K5WTHJ61C"},{"rt":2627,"response":"63","name":"rating","trial_type":"image-slider-response","trial_index":58,"time_elapsed":218596,"internal_node_id":"0.0-58.0","participant_id":"ANK8K5WTHJ61C"},{"rt":1061,"stimulus":"stimuli/28.jpg","button_pressed":"0","name":"emotionType","trial_type":"image-button-response","trial_index":59,"time_elapsed":219659,"internal_node_id":"0.0-59.0","participant_id":"ANK8K5WTHJ61C"},{"rt":4756,"responses":"{\"Q0\":\"sky\"}","trial_type":"survey-text","trial_index":60,"time_elapsed":224417,"internal_node_id":"0.0-60.0-0.0","participant_id":"ANK8K5WTHJ61C"},{"rt":null,"stimulus":"<p style=\"font-size: 48px;\">+</p>","key_press":null,"Name":"fixation","trial_type":"html-keyboard-response","trial_index":61,"time_elapsed":224923,"internal_node_id":"0.0-61.0","participant_id":"ANK8K5WTHJ61C"},{"rt":null,"stimulus":"stimuli/53.jpg","button_pressed":null,"name":"noRating","trial_type":"image-button-response","trial_index":62,"time_elapsed":229926,"internal_node_id":"0.0-62.0","participant_id":"ANK8K5WTHJ61C"},{"rt":1430,"stimulus":"stimuli/53.jpg","button_pressed":"0","name":"valence","trial_type":"image-button-response","trial_index":63,"time_elapsed":231357,"internal_node_id":"0.0-63.0","participant_id":"ANK8K5WTHJ61C"},{"rt":4095,"response":"91","name":"rating","trial_type":"image-slider-response","trial_index":64,"time_elapsed":235453,"internal_node_id":"0.0-64.0","participant_id":"ANK8K5WTHJ61C"},{"rt":2390,"stimulus":"stimuli/53.jpg","button_pressed":"1","name":"emotionType","trial_type":"image-button-response","trial_index":65,"time_elapsed":237846,"internal_node_id":"0.0-65.0","participant_id":"ANK8K5WTHJ61C"},{"rt":null,"stimulus":"<p style=\"font-size: 48px;\">+</p>","key_press":null,"Name":"fixation","trial_type":"html-keyboard-response","trial_index":66,"time_elapsed":239347,"internal_node_id":"0.0-66.0","participant_id":"ANK8K5WTHJ61C"},{"rt":null,"stimulus":"stimuli/16.jpg","button_pressed":null,"name":"noRating","trial_type":"image-button-response","trial_index":67,"time_elapsed":244354,"internal_node_id":"0.0-67.0","participant_id":"ANK8K5WTHJ61C"},{"rt":1215,"stimulus":"stimuli/16.jpg","button_pressed":"0","name":"valence","trial_type":"image-button-response","trial_index":68,"time_elapsed":245572,"internal_node_id":"0.0-68.0","participant_id":"ANK8K5WTHJ61C"},{"rt":2232,"response":"48","name":"rating","trial_type":"image-slider-response","trial_index":69,"time_elapsed":247806,"internal_node_id":"0.0-69.0","participant_id":"ANK8K5WTHJ61C"},{"rt":1541,"stimulus":"stimuli/16.jpg","button_pressed":"0","name":"emotionType","trial_type":"image-button-response","trial_index":70,"time_elapsed":249348,"internal_node_id":"0.0-70.0","participant_id":"ANK8K5WTHJ61C"},{"rt":null,"stimulus":"<p style=\"font-size: 48px;\">+</p>","key_press":null,"Name":"fixation","trial_type":"html-keyboard-response","trial_index":71,"time_elapsed":250352,"internal_node_id":"0.0-71.0","participant_id":"ANK8K5WTHJ61C"},{"rt":null,"stimulus":"stimuli/15.jpg","button_pressed":null,"name":"noRating","trial_type":"image-button-response","trial_index":72,"time_elapsed":255357,"internal_node_id":"0.0-72.0","participant_id":"ANK8K5WTHJ61C"},{"rt":825,"stimulus":"stimuli/15.jpg","button_pressed":"0","name":"valence","trial_type":"image-button-response","trial_index":73,"time_elapsed":256182,"internal_node_id":"0.0-73.0","participant_id":"ANK8K5WTHJ61C"},{"rt":3265,"response":"81","name":"rating","trial_type":"image-slider-response","trial_index":74,"time_elapsed":259448,"internal_node_id":"0.0-74.0","participant_id":"ANK8K5WTHJ61C"},{"rt":2711,"stimulus":"stimuli/15.jpg","button_pressed":"0","name":"emotionType","trial_type":"image-button-response","trial_index":75,"time_elapsed":262160,"internal_node_id":"0.0-75.0","participant_id":"ANK8K5WTHJ61C"},{"rt":null,"stimulus":"<p style=\"font-size: 48px;\">+</p>","key_press":null,"Name":"fixation","trial_type":"html-keyboard-response","trial_index":76,"time_elapsed":263664,"internal_node_id":"0.0-76.0","participant_id":"ANK8K5WTHJ61C"},{"rt":null,"stimulus":"stimuli/6.jpg","button_pressed":null,"name":"noRating","trial_type":"image-button-response","trial_index":77,"time_elapsed":268670,"internal_node_id":"0.0-77.0","participant_id":"ANK8K5WTHJ61C"},{"rt":784,"stimulus":"stimuli/6.jpg","button_pressed":"0","name":"valence","trial_type":"image-button-response","trial_index":78,"time_elapsed":269454,"internal_node_id":"0.0-78.0","participant_id":"ANK8K5WTHJ61C"},{"rt":1874,"response":"74","name":"rating","trial_type":"image-slider-response","trial_index":79,"time_elapsed":271331,"internal_node_id":"0.0-79.0","participant_id":"ANK8K5WTHJ61C"},{"rt":622,"stimulus":"stimuli/6.jpg","button_pressed":"1","name":"emotionType","trial_type":"image-button-response","trial_index":80,"time_elapsed":271954,"internal_node_id":"0.0-80.0","participant_id":"ANK8K5WTHJ61C"},{"rt":null,"stimulus":"<p style=\"font-size: 48px;\">+</p>","key_press":null,"Name":"fixation","trial_type":"html-keyboard-response","trial_index":81,"time_elapsed":272457,"internal_node_id":"0.0-81.0","participant_id":"ANK8K5WTHJ61C"},{"rt":null,"stimulus":"stimuli/43.jpg","button_pressed":null,"name":"noRating","trial_type":"image-button-response","trial_index":82,"time_elapsed":277459,"internal_node_id":"0.0-82.0","participant_id":"ANK8K5WTHJ61C"},{"rt":3256,"stimulus":"stimuli/43.jpg","button_pressed":"0","name":"valence","trial_type":"image-button-response","trial_index":83,"time_elapsed":280717,"internal_node_id":"0.0-83.0","participant_id":"ANK8K5WTHJ61C"},{"rt":2287,"response":"16","name":"rating","trial_type":"image-slider-response","trial_index":84,"time_elapsed":283005,"internal_node_id":"0.0-84.0","participant_id":"ANK8K5WTHJ61C"},{"rt":3567,"stimulus":"stimuli/43.jpg","button_pressed":"0","name":"emotionType","trial_type":"image-button-response","trial_index":85,"time_elapsed":286573,"internal_node_id":"0.0-85.0","participant_id":"ANK8K5WTHJ61C"},{"rt":3750,"responses":"{\"Q0\":\"our\"}","trial_type":"survey-text","trial_index":86,"time_elapsed":290325,"internal_node_id":"0.0-86.0-0.0","participant_id":"ANK8K5WTHJ61C"},{"rt":null,"stimulus":"<p style=\"font-size: 48px;\">+</p>","key_press":null,"Name":"fixation","trial_type":"html-keyboard-response","trial_index":87,"time_elapsed":290830,"internal_node_id":"0.0-87.0","participant_id":"ANK8K5WTHJ61C"},{"rt":null,"stimulus":"stimuli/58.jpg","button_pressed":null,"name":"noRating","trial_type":"image-button-response","trial_index":88,"time_elapsed":295831,"internal_node_id":"0.0-88.0","participant_id":"ANK8K5WTHJ61C"},{"rt":823,"stimulus":"stimuli/58.jpg","button_pressed":"0","name":"valence","trial_type":"image-button-response","trial_index":89,"time_elapsed":296656,"internal_node_id":"0.0-89.0","participant_id":"ANK8K5WTHJ61C"},{"rt":2743,"response":"47","name":"rating","trial_type":"image-slider-response","trial_index":90,"time_elapsed":299400,"internal_node_id":"0.0-90.0","participant_id":"ANK8K5WTHJ61C"},{"rt":1911,"stimulus":"stimuli/58.jpg","button_pressed":"1","name":"emotionType","trial_type":"image-button-response","trial_index":91,"time_elapsed":301311,"internal_node_id":"0.0-91.0","participant_id":"ANK8K5WTHJ61C"},{"rt":null,"stimulus":"<p style=\"font-size: 48px;\">+</p>","key_press":null,"Name":"fixation","trial_type":"html-keyboard-response","trial_index":92,"time_elapsed":302316,"internal_node_id":"0.0-92.0","participant_id":"ANK8K5WTHJ61C"},{"rt":null,"stimulus":"stimuli/63.jpg","button_pressed":null,"name":"noRating","trial_type":"image-button-response","trial_index":93,"time_elapsed":307319,"internal_node_id":"0.0-93.0","participant_id":"ANK8K5WTHJ61C"},{"rt":1647,"stimulus":"stimuli/63.jpg","button_pressed":"0","name":"valence","trial_type":"image-button-response","trial_index":94,"time_elapsed":308967,"internal_node_id":"0.0-94.0","participant_id":"ANK8K5WTHJ61C"},{"rt":2582,"response":"67","name":"rating","trial_type":"image-slider-response","trial_index":95,"time_elapsed":311551,"internal_node_id":"0.0-95.0","participant_id":"ANK8K5WTHJ61C"},{"rt":790,"stimulus":"stimuli/63.jpg","button_pressed":"0","name":"emotionType","trial_type":"image-button-response","trial_index":96,"time_elapsed":312344,"internal_node_id":"0.0-96.0","participant_id":"ANK8K5WTHJ61C"},{"rt":null,"stimulus":"<p style=\"font-size: 48px;\">+</p>","key_press":null,"Name":"fixation","trial_type":"html-keyboard-response","trial_index":97,"time_elapsed":313347,"internal_node_id":"0.0-97.0","participant_id":"ANK8K5WTHJ61C"},{"rt":null,"stimulus":"stimuli/49.jpg","button_pressed":null,"name":"noRating","trial_type":"image-button-response","trial_index":98,"time_elapsed":318351,"internal_node_id":"0.0-98.0","participant_id":"ANK8K5WTHJ61C"},{"rt":1097,"stimulus":"stimuli/49.jpg","button_pressed":"0","name":"valence","trial_type":"image-button-response","trial_index":99,"time_elapsed":319448,"internal_node_id":"0.0-99.0","participant_id":"ANK8K5WTHJ61C"},{"rt":3034,"response":"81","name":"rating","trial_type":"image-slider-response","trial_index":100,"time_elapsed":322485,"internal_node_id":"0.0-100.0","participant_id":"ANK8K5WTHJ61C"},{"rt":967,"stimulus":"stimuli/49.jpg","button_pressed":"0","name":"emotionType","trial_type":"image-button-response","trial_index":101,"time_elapsed":323452,"internal_node_id":"0.0-101.0","participant_id":"ANK8K5WTHJ61C"},{"rt":null,"stimulus":"<p style=\"font-size: 48px;\">+</p>","key_press":null,"Name":"fixation","trial_type":"html-keyboard-response","trial_index":102,"time_elapsed":324956,"internal_node_id":"0.0-102.0","participant_id":"ANK8K5WTHJ61C"},{"rt":null,"stimulus":"stimuli/60.jpg","button_pressed":null,"name":"noRating","trial_type":"image-button-response","trial_index":103,"time_elapsed":329959,"internal_node_id":"0.0-103.0","participant_id":"ANK8K5WTHJ61C"},{"rt":860,"stimulus":"stimuli/60.jpg","button_pressed":"2","name":"valence","trial_type":"image-button-response","trial_index":104,"time_elapsed":330820,"internal_node_id":"0.0-104.0","participant_id":"ANK8K5WTHJ61C"},{"rt":3683,"response":"19","name":"rating","trial_type":"image-slider-response","trial_index":105,"time_elapsed":334505,"internal_node_id":"0.0-105.0","participant_id":"ANK8K5WTHJ61C"},{"rt":2921,"stimulus":"stimuli/60.jpg","button_pressed":"2","name":"emotionType","trial_type":"image-button-response","trial_index":106,"time_elapsed":337426,"internal_node_id":"0.0-106.0","participant_id":"ANK8K5WTHJ61C"},{"rt":null,"stimulus":"<p style=\"font-size: 48px;\">+</p>","key_press":null,"Name":"fixation","trial_type":"html-keyboard-response","trial_index":107,"time_elapsed":337928,"internal_node_id":"0.0-107.0","participant_id":"ANK8K5WTHJ61C"},{"rt":null,"stimulus":"stimuli/52.jpg","button_pressed":null,"name":"noRating","trial_type":"image-button-response","trial_index":108,"time_elapsed":342929,"internal_node_id":"0.0-108.0","participant_id":"ANK8K5WTHJ61C"},{"rt":942,"stimulus":"stimuli/52.jpg","button_pressed":"0","name":"valence","trial_type":"image-button-response","trial_index":109,"time_elapsed":343872,"internal_node_id":"0.0-109.0","participant_id":"ANK8K5WTHJ61C"},{"rt":2603,"response":"64","name":"rating","trial_type":"image-slider-response","trial_index":110,"time_elapsed":346476,"internal_node_id":"0.0-110.0","participant_id":"ANK8K5WTHJ61C"},{"rt":1214,"stimulus":"stimuli/52.jpg","button_pressed":"0","name":"emotionType","trial_type":"image-button-response","trial_index":111,"time_elapsed":347692,"internal_node_id":"0.0-111.0","participant_id":"ANK8K5WTHJ61C"},{"rt":4307,"responses":"{\"Q0\":\"course\"}","trial_type":"survey-text","trial_index":112,"time_elapsed":352000,"internal_node_id":"0.0-112.0-0.0","participant_id":"ANK8K5WTHJ61C"},{"rt":null,"stimulus":"<p style=\"font-size: 48px;\">+</p>","key_press":null,"Name":"fixation","trial_type":"html-keyboard-response","trial_index":113,"time_elapsed":353503,"internal_node_id":"0.0-113.0","participant_id":"ANK8K5WTHJ61C"},{"rt":null,"stimulus":"stimuli/29.jpg","button_pressed":null,"name":"noRating","trial_type":"image-button-response","trial_index":114,"time_elapsed":358508,"internal_node_id":"0.0-114.0","participant_id":"ANK8K5WTHJ61C"},{"rt":1796,"stimulus":"stimuli/29.jpg","button_pressed":"0","name":"valence","trial_type":"image-button-response","trial_index":115,"time_elapsed":360305,"internal_node_id":"0.0-115.0","participant_id":"ANK8K5WTHJ61C"},{"rt":2489,"response":"68","name":"rating","trial_type":"image-slider-response","trial_index":116,"time_elapsed":362796,"internal_node_id":"0.0-116.0","participant_id":"ANK8K5WTHJ61C"},{"rt":1382,"stimulus":"stimuli/29.jpg","button_pressed":"1","name":"emotionType","trial_type":"image-button-response","trial_index":117,"time_elapsed":364179,"internal_node_id":"0.0-117.0","participant_id":"ANK8K5WTHJ61C"},{"rt":null,"stimulus":"<p style=\"font-size: 48px;\">+</p>","key_press":null,"Name":"fixation","trial_type":"html-keyboard-response","trial_index":118,"time_elapsed":364680,"internal_node_id":"0.0-118.0","participant_id":"ANK8K5WTHJ61C"},{"rt":null,"stimulus":"stimuli/45.jpg","button_pressed":null,"name":"noRating","trial_type":"image-button-response","trial_index":119,"time_elapsed":369687,"internal_node_id":"0.0-119.0","participant_id":"ANK8K5WTHJ61C"},{"rt":1103,"stimulus":"stimuli/45.jpg","button_pressed":"0","name":"valence","trial_type":"image-button-response","trial_index":120,"time_elapsed":370791,"internal_node_id":"0.0-120.0","participant_id":"ANK8K5WTHJ61C"},{"rt":2162,"response":"84","name":"rating","trial_type":"image-slider-response","trial_index":121,"time_elapsed":372954,"internal_node_id":"0.0-121.0","participant_id":"ANK8K5WTHJ61C"},{"rt":854,"stimulus":"stimuli/45.jpg","button_pressed":"1","name":"emotionType","trial_type":"image-button-response","trial_index":122,"time_elapsed":373810,"internal_node_id":"0.0-122.0","participant_id":"ANK8K5WTHJ61C"},{"rt":null,"stimulus":"<p style=\"font-size: 48px;\">+</p>","key_press":null,"Name":"fixation","trial_type":"html-keyboard-response","trial_index":123,"time_elapsed":375312,"internal_node_id":"0.0-123.0","participant_id":"ANK8K5WTHJ61C"},{"rt":null,"stimulus":"stimuli/40.jpg","button_pressed":null,"name":"noRating","trial_type":"image-button-response","trial_index":124,"time_elapsed":380314,"internal_node_id":"0.0-124.0","participant_id":"ANK8K5WTHJ61C"},{"rt":1163,"stimulus":"stimuli/40.jpg","button_pressed":"0","name":"valence","trial_type":"image-button-response","trial_index":125,"time_elapsed":381480,"internal_node_id":"0.0-125.0","participant_id":"ANK8K5WTHJ61C"},{"rt":5035,"response":"14","name":"rating","trial_type":"image-slider-response","trial_index":126,"time_elapsed":386516,"internal_node_id":"0.0-126.0","participant_id":"ANK8K5WTHJ61C"},{"rt":4914,"stimulus":"stimuli/40.jpg","button_pressed":"1","name":"emotionType","trial_type":"image-button-response","trial_index":127,"time_elapsed":391432,"internal_node_id":"0.0-127.0","participant_id":"ANK8K5WTHJ61C"},{"rt":null,"stimulus":"<p style=\"font-size: 48px;\">+</p>","key_press":null,"Name":"fixation","trial_type":"html-keyboard-response","trial_index":128,"time_elapsed":392935,"internal_node_id":"0.0-128.0","participant_id":"ANK8K5WTHJ61C"},{"rt":null,"stimulus":"stimuli/71.jpg","button_pressed":null,"name":"noRating","trial_type":"image-button-response","trial_index":129,"time_elapsed":397940,"internal_node_id":"0.0-129.0","participant_id":"ANK8K5WTHJ61C"},{"rt":751,"stimulus":"stimuli/71.jpg","button_pressed":"0","name":"valence","trial_type":"image-button-response","trial_index":130,"time_elapsed":398692,"internal_node_id":"0.0-130.0","participant_id":"ANK8K5WTHJ61C"},{"rt":2681,"response":"89","name":"rating","trial_type":"image-slider-response","trial_index":131,"time_elapsed":401375,"internal_node_id":"0.0-131.0","participant_id":"ANK8K5WTHJ61C"},{"rt":1403,"stimulus":"stimuli/71.jpg","button_pressed":"1","name":"emotionType","trial_type":"image-button-response","trial_index":132,"time_elapsed":402781,"internal_node_id":"0.0-132.0","participant_id":"ANK8K5WTHJ61C"},{"rt":null,"stimulus":"<p style=\"font-size: 48px;\">+</p>","key_press":null,"Name":"fixation","trial_type":"html-keyboard-response","trial_index":133,"time_elapsed":404282,"internal_node_id":"0.0-133.0","participant_id":"ANK8K5WTHJ61C"},{"rt":null,"stimulus":"stimuli/57.jpg","button_pressed":null,"name":"noRating","trial_type":"image-button-response","trial_index":134,"time_elapsed":409287,"internal_node_id":"0.0-134.0","participant_id":"ANK8K5WTHJ61C"},{"rt":942,"stimulus":"stimuli/57.jpg","button_pressed":"0","name":"valence","trial_type":"image-button-response","trial_index":135,"time_elapsed":410230,"internal_node_id":"0.0-135.0","participant_id":"ANK8K5WTHJ61C"},{"rt":1817,"response":"17","name":"rating","trial_type":"image-slider-response","trial_index":136,"time_elapsed":412049,"internal_node_id":"0.0-136.0","participant_id":"ANK8K5WTHJ61C"},{"rt":1519,"stimulus":"stimuli/57.jpg","button_pressed":"0","name":"emotionType","trial_type":"image-button-response","trial_index":137,"time_elapsed":413569,"internal_node_id":"0.0-137.0","participant_id":"ANK8K5WTHJ61C"},{"rt":3167,"responses":"{\"Q0\":\"we\"}","trial_type":"survey-text","trial_index":138,"time_elapsed":416736,"internal_node_id":"0.0-138.0-0.0","participant_id":"ANK8K5WTHJ61C"},{"rt":null,"stimulus":"<p style=\"font-size: 48px;\">+</p>","key_press":null,"Name":"fixation","trial_type":"html-keyboard-response","trial_index":139,"time_elapsed":418243,"internal_node_id":"0.0-139.0","participant_id":"ANK8K5WTHJ61C"},{"rt":null,"stimulus":"stimuli/59.jpg","button_pressed":null,"name":"noRating","trial_type":"image-button-response","trial_index":140,"time_elapsed":423248,"internal_node_id":"0.0-140.0","participant_id":"ANK8K5WTHJ61C"},{"rt":1181,"stimulus":"stimuli/59.jpg","button_pressed":"0","name":"valence","trial_type":"image-button-response","trial_index":141,"time_elapsed":424430,"internal_node_id":"0.0-141.0","participant_id":"ANK8K5WTHJ61C"},{"rt":2040,"response":"57","name":"rating","trial_type":"image-slider-response","trial_index":142,"time_elapsed":426471,"internal_node_id":"0.0-142.0","participant_id":"ANK8K5WTHJ61C"},{"rt":725,"stimulus":"stimuli/59.jpg","button_pressed":"0","name":"emotionType","trial_type":"image-button-response","trial_index":143,"time_elapsed":427199,"internal_node_id":"0.0-143.0","participant_id":"ANK8K5WTHJ61C"},{"rt":null,"stimulus":"<p style=\"font-size: 48px;\">+</p>","key_press":null,"Name":"fixation","trial_type":"html-keyboard-response","trial_index":144,"time_elapsed":428703,"internal_node_id":"0.0-144.0","participant_id":"ANK8K5WTHJ61C"},{"rt":null,"stimulus":"stimuli/34.jpg","button_pressed":null,"name":"noRating","trial_type":"image-button-response","trial_index":145,"time_elapsed":433707,"internal_node_id":"0.0-145.0","participant_id":"ANK8K5WTHJ61C"},{"rt":869,"stimulus":"stimuli/34.jpg","button_pressed":"0","name":"valence","trial_type":"image-button-response","trial_index":146,"time_elapsed":434577,"internal_node_id":"0.0-146.0","participant_id":"ANK8K5WTHJ61C"},{"rt":6072,"response":"74","name":"rating","trial_type":"image-slider-response","trial_index":147,"time_elapsed":440652,"internal_node_id":"0.0-147.0","participant_id":"ANK8K5WTHJ61C"},{"rt":29708,"stimulus":"stimuli/34.jpg","button_pressed":"2","name":"emotionType","trial_type":"image-button-response","trial_index":148,"time_elapsed":470360,"internal_node_id":"0.0-148.0","participant_id":"ANK8K5WTHJ61C"},{"rt":null,"stimulus":"<p style=\"font-size: 48px;\">+</p>","key_press":null,"Name":"fixation","trial_type":"html-keyboard-response","trial_index":149,"time_elapsed":471863,"internal_node_id":"0.0-149.0","participant_id":"ANK8K5WTHJ61C"},{"rt":null,"stimulus":"stimuli/30.jpg","button_pressed":null,"name":"noRating","trial_type":"image-button-response","trial_index":150,"time_elapsed":476866,"internal_node_id":"0.0-150.0","participant_id":"ANK8K5WTHJ61C"},{"rt":799,"stimulus":"stimuli/30.jpg","button_pressed":"0","name":"valence","trial_type":"image-button-response","trial_index":151,"time_elapsed":477666,"internal_node_id":"0.0-151.0","participant_id":"ANK8K5WTHJ61C"},{"rt":3760,"response":"60","name":"rating","trial_type":"image-slider-response","trial_index":152,"time_elapsed":481426,"internal_node_id":"0.0-152.0","participant_id":"ANK8K5WTHJ61C"},{"rt":613,"stimulus":"stimuli/30.jpg","button_pressed":"0","name":"emotionType","trial_type":"image-button-response","trial_index":153,"time_elapsed":482042,"internal_node_id":"0.0-153.0","participant_id":"ANK8K5WTHJ61C"},{"rt":null,"stimulus":"<p style=\"font-size: 48px;\">+</p>","key_press":null,"Name":"fixation","trial_type":"html-keyboard-response","trial_index":154,"time_elapsed":483544,"internal_node_id":"0.0-154.0","participant_id":"ANK8K5WTHJ61C"},{"rt":null,"stimulus":"stimuli/56.jpg","button_pressed":null,"name":"noRating","trial_type":"image-button-response","trial_index":155,"time_elapsed":488549,"internal_node_id":"0.0-155.0","participant_id":"ANK8K5WTHJ61C"},{"rt":1360,"stimulus":"stimuli/56.jpg","button_pressed":"0","name":"valence","trial_type":"image-button-response","trial_index":156,"time_elapsed":489911,"internal_node_id":"0.0-156.0","participant_id":"ANK8K5WTHJ61C"},{"rt":3167,"response":"39","name":"rating","trial_type":"image-slider-response","trial_index":157,"time_elapsed":493079,"internal_node_id":"0.0-157.0","participant_id":"ANK8K5WTHJ61C"},{"rt":1279,"stimulus":"stimuli/56.jpg","button_pressed":"0","name":"emotionType","trial_type":"image-button-response","trial_index":158,"time_elapsed":494360,"internal_node_id":"0.0-158.0","participant_id":"ANK8K5WTHJ61C"},{"rt":null,"stimulus":"<p style=\"font-size: 48px;\">+</p>","key_press":null,"Name":"fixation","trial_type":"html-keyboard-response","trial_index":159,"time_elapsed":495364,"internal_node_id":"0.0-159.0","participant_id":"ANK8K5WTHJ61C"},{"rt":null,"stimulus":"stimuli/22.jpg","button_pressed":null,"name":"noRating","trial_type":"image-button-response","trial_index":160,"time_elapsed":500371,"internal_node_id":"0.0-160.0","participant_id":"ANK8K5WTHJ61C"},{"rt":2056,"stimulus":"stimuli/22.jpg","button_pressed":"0","name":"valence","trial_type":"image-button-response","trial_index":161,"time_elapsed":502428,"internal_node_id":"0.0-161.0","participant_id":"ANK8K5WTHJ61C"},{"rt":2892,"response":"65","name":"rating","trial_type":"image-slider-response","trial_index":162,"time_elapsed":505321,"internal_node_id":"0.0-162.0","participant_id":"ANK8K5WTHJ61C"},{"rt":719,"stimulus":"stimuli/22.jpg","button_pressed":"1","name":"emotionType","trial_type":"image-button-response","trial_index":163,"time_elapsed":506042,"internal_node_id":"0.0-163.0","participant_id":"ANK8K5WTHJ61C"},{"rt":6899,"stimulus":"stimuli/ins/Slide8.JPG","button_pressed":"0","trial_type":"image-button-response","trial_index":164,"time_elapsed":512941,"internal_node_id":"0.0-164.0","participant_id":"ANK8K5WTHJ61C"}]