[{"rt":6986,"responses":"{\"Q0\":\"APY5858P6BTDY\"}","trial_type":"survey-text","trial_index":0,"time_elapsed":6995,"internal_node_id":"0.0-0.0-0.0","participant_id":"APY5858P6BTDY"},{"rt":7585,"stimulus":"stimuli/ins/Slide1.JPG","button_pressed":"0","Name":"instructions","trial_type":"image-button-response","trial_index":1,"time_elapsed":14588,"internal_node_id":"0.0-1.0","participant_id":"APY5858P6BTDY"},{"rt":6811,"stimulus":"stimuli/ins/Slide2.JPG","button_pressed":"0","Name":"instructions","trial_type":"image-button-response","trial_index":2,"time_elapsed":21404,"internal_node_id":"0.0-2.0","participant_id":"APY5858P6BTDY"},{"rt":11634,"stimulus":"stimuli/ins/Slide3.JPG","button_pressed":"0","Name":"instructions","trial_type":"image-button-response","trial_index":3,"time_elapsed":33043,"internal_node_id":"0.0-3.0","participant_id":"APY5858P6BTDY"},{"rt":15724,"stimulus":"stimuli/ins/Slide4.JPG","button_pressed":"0","Name":"instructions","trial_type":"image-button-response","trial_index":4,"time_elapsed":48772,"internal_node_id":"0.0-4.0","participant_id":"APY5858P6BTDY"},{"rt":13521,"stimulus":"stimuli/ins/Slide5.JPG","button_pressed":"0","Name":"instructions","trial_type":"image-button-response","trial_index":5,"time_elapsed":62299,"internal_node_id":"0.0-5.0","participant_id":"APY5858P6BTDY"},{"rt":10092,"stimulus":"stimuli/ins/Slide6.JPG","button_pressed":"0","Name":"instructions","trial_type":"image-button-response","trial_index":6,"time_elapsed":72394,"internal_node_id":"0.0-6.0","participant_id":"APY5858P6BTDY"},{"rt":4430,"stimulus":"stimuli/ins/Slide7.JPG","button_pressed":"0","Name":"instructions","trial_type":"image-button-response","trial_index":7,"time_elapsed":76827,"internal_node_id":"0.0-7.0","participant_id":"APY5858P6BTDY"},{"rt":18515,"responses":"{\"Q0\":\"but\"}","trial_type":"survey-text","trial_index":8,"time_elapsed":95346,"internal_node_id":"0.0-8.0-0.0","participant_id":"APY5858P6BTDY"},{"rt":null,"stimulus":"<p style=\"font-size: 48px;\">+</p>","key_press":null,"Name":"fixation","trial_type":"html-keyboard-response","trial_index":9,"time_elapsed":96359,"internal_node_id":"0.0-9.0","participant_id":"APY5858P6BTDY"},{"rt":null,"stimulus":"stimuli/43.jpg","button_pressed":null,"name":"noRating","trial_type":"image-button-response","trial_index":10,"time_elapsed":101364,"internal_node_id":"0.0-10.0","participant_id":"APY5858P6BTDY"},{"rt":5500,"stimulus":"stimuli/43.jpg","button_pressed":"2","name":"valence","trial_type":"image-button-response","trial_index":11,"time_elapsed":106866,"internal_node_id":"0.0-11.0","participant_id":"APY5858P6BTDY"},{"rt":6107,"response":"100","name":"rating","trial_type":"image-slider-response","trial_index":12,"time_elapsed":112979,"internal_node_id":"0.0-12.0","participant_id":"APY5858P6BTDY"},{"rt":3252,"stimulus":"stimuli/43.jpg","button_pressed":"2","name":"emotionType","trial_type":"image-button-response","trial_index":13,"time_elapsed":116235,"internal_node_id":"0.0-13.0","participant_id":"APY5858P6BTDY"},{"rt":null,"stimulus":"<p style=\"font-size: 48px;\">+</p>","key_press":null,"Name":"fixation","trial_type":"html-keyboard-response","trial_index":14,"time_elapsed":117239,"internal_node_id":"0.0-14.0","participant_id":"APY5858P6BTDY"},{"rt":null,"stimulus":"stimuli/25.jpg","button_pressed":null,"name":"noRating","trial_type":"image-button-response","trial_index":15,"time_elapsed":122241,"internal_node_id":"0.0-15.0","participant_id":"APY5858P6BTDY"},{"rt":1672,"stimulus":"stimuli/25.jpg","button_pressed":"0","name":"valence","trial_type":"image-button-response","trial_index":16,"time_elapsed":123915,"internal_node_id":"0.0-16.0","participant_id":"APY5858P6BTDY"},{"rt":3291,"response":"80","name":"rating","trial_type":"image-slider-response","trial_index":17,"time_elapsed":127210,"internal_node_id":"0.0-17.0","participant_id":"APY5858P6BTDY"},{"rt":5252,"stimulus":"stimuli/25.jpg","button_pressed":"0","name":"emotionType","trial_type":"image-button-response","trial_index":18,"time_elapsed":132466,"internal_node_id":"0.0-18.0","participant_id":"APY5858P6BTDY"},{"rt":null,"stimulus":"<p style=\"font-size: 48px;\">+</p>","key_press":null,"Name":"fixation","trial_type":"html-keyboard-response","trial_index":19,"time_elapsed":132970,"internal_node_id":"0.0-19.0","participant_id":"APY5858P6BTDY"},{"rt":null,"stimulus":"stimuli/67.jpg","button_pressed":null,"name":"noRating","trial_type":"image-button-response","trial_index":20,"time_elapsed":137973,"internal_node_id":"0.0-20.0","participant_id":"APY5858P6BTDY"},{"rt":12746,"stimulus":"stimuli/67.jpg","button_pressed":"0","name":"valence","trial_type":"image-button-response","trial_index":21,"time_elapsed":150725,"internal_node_id":"0.0-21.0","participant_id":"APY5858P6BTDY"},{"rt":3384,"response":"84","name":"rating","trial_type":"image-slider-response","trial_index":22,"time_elapsed":154117,"internal_node_id":"0.0-22.0","participant_id":"APY5858P6BTDY"},{"rt":4983,"stimulus":"stimuli/67.jpg","button_pressed":"0","name":"emotionType","trial_type":"image-button-response","trial_index":23,"time_elapsed":159111,"internal_node_id":"0.0-23.0","participant_id":"APY5858P6BTDY"},{"rt":null,"stimulus":"<p style=\"font-size: 48px;\">+</p>","key_press":null,"Name":"fixation","trial_type":"html-keyboard-response","trial_index":24,"time_elapsed":160119,"internal_node_id":"0.0-24.0","participant_id":"APY5858P6BTDY"},{"rt":null,"stimulus":"stimuli/63.jpg","button_pressed":null,"name":"noRating","trial_type":"image-button-response","trial_index":25,"time_elapsed":165124,"internal_node_id":"0.0-25.0","participant_id":"APY5858P6BTDY"},{"rt":1907,"stimulus":"stimuli/63.jpg","button_pressed":"0","name":"valence","trial_type":"image-button-response","trial_index":26,"time_elapsed":167034,"internal_node_id":"0.0-26.0","participant_id":"APY5858P6BTDY"},{"rt":3388,"response":"71","name":"rating","trial_type":"image-slider-response","trial_index":27,"time_elapsed":170426,"internal_node_id":"0.0-27.0","participant_id":"APY5858P6BTDY"},{"rt":1380,"stimulus":"stimuli/63.jpg","button_pressed":"0","name":"emotionType","trial_type":"image-button-response","trial_index":28,"time_elapsed":171810,"internal_node_id":"0.0-28.0","participant_id":"APY5858P6BTDY"},{"rt":null,"stimulus":"<p style=\"font-size: 48px;\">+</p>","key_press":null,"Name":"fixation","trial_type":"html-keyboard-response","trial_index":29,"time_elapsed":173315,"internal_node_id":"0.0-29.0","participant_id":"APY5858P6BTDY"},{"rt":null,"stimulus":"stimuli/11.jpg","button_pressed":null,"name":"noRating","trial_type":"image-button-response","trial_index":30,"time_elapsed":178318,"internal_node_id":"0.0-30.0","participant_id":"APY5858P6BTDY"},{"rt":2640,"stimulus":"stimuli/11.jpg","button_pressed":"0","name":"valence","trial_type":"image-button-response","trial_index":31,"time_elapsed":180962,"internal_node_id":"0.0-31.0","participant_id":"APY5858P6BTDY"},{"rt":4941,"response":"70","name":"rating","trial_type":"image-slider-response","trial_index":32,"time_elapsed":185906,"internal_node_id":"0.0-32.0","participant_id":"APY5858P6BTDY"},{"rt":5652,"stimulus":"stimuli/11.jpg","button_pressed":"0","name":"emotionType","trial_type":"image-button-response","trial_index":33,"time_elapsed":191562,"internal_node_id":"0.0-33.0","participant_id":"APY5858P6BTDY"},{"rt":7069,"responses":"{\"Q0\":\"rock\"}","trial_type":"survey-text","trial_index":34,"time_elapsed":198634,"internal_node_id":"0.0-34.0-0.0","participant_id":"APY5858P6BTDY"},{"rt":null,"stimulus":"<p style=\"font-size: 48px;\">+</p>","key_press":null,"Name":"fixation","trial_type":"html-keyboard-response","trial_index":35,"time_elapsed":199138,"internal_node_id":"0.0-35.0","participant_id":"APY5858P6BTDY"},{"rt":null,"stimulus":"stimuli/2.jpg","button_pressed":null,"name":"noRating","trial_type":"image-button-response","trial_index":36,"time_elapsed":204141,"internal_node_id":"0.0-36.0","participant_id":"APY5858P6BTDY"},{"rt":5771,"stimulus":"stimuli/2.jpg","button_pressed":"0","name":"valence","trial_type":"image-button-response","trial_index":37,"time_elapsed":209914,"internal_node_id":"0.0-37.0","participant_id":"APY5858P6BTDY"},{"rt":1765,"response":"59","name":"rating","trial_type":"image-slider-response","trial_index":38,"time_elapsed":211683,"internal_node_id":"0.0-38.0","participant_id":"APY5858P6BTDY"},{"rt":4706,"stimulus":"stimuli/2.jpg","button_pressed":"0","name":"emotionType","trial_type":"image-button-response","trial_index":39,"time_elapsed":216396,"internal_node_id":"0.0-39.0","participant_id":"APY5858P6BTDY"},{"rt":null,"stimulus":"<p style=\"font-size: 48px;\">+</p>","key_press":null,"Name":"fixation","trial_type":"html-keyboard-response","trial_index":40,"time_elapsed":216900,"internal_node_id":"0.0-40.0","participant_id":"APY5858P6BTDY"},{"rt":null,"stimulus":"stimuli/58.jpg","button_pressed":null,"name":"noRating","trial_type":"image-button-response","trial_index":41,"time_elapsed":221905,"internal_node_id":"0.0-41.0","participant_id":"APY5858P6BTDY"},{"rt":2015,"stimulus":"stimuli/58.jpg","button_pressed":"0","name":"valence","trial_type":"image-button-response","trial_index":42,"time_elapsed":223922,"internal_node_id":"0.0-42.0","participant_id":"APY5858P6BTDY"},{"rt":5157,"response":"85","name":"rating","trial_type":"image-slider-response","trial_index":43,"time_elapsed":229082,"internal_node_id":"0.0-43.0","participant_id":"APY5858P6BTDY"},{"rt":1213,"stimulus":"stimuli/58.jpg","button_pressed":"1","name":"emotionType","trial_type":"image-button-response","trial_index":44,"time_elapsed":230299,"internal_node_id":"0.0-44.0","participant_id":"APY5858P6BTDY"},{"rt":null,"stimulus":"<p style=\"font-size: 48px;\">+</p>","key_press":null,"Name":"fixation","trial_type":"html-keyboard-response","trial_index":45,"time_elapsed":231302,"internal_node_id":"0.0-45.0","participant_id":"APY5858P6BTDY"},{"rt":null,"stimulus":"stimuli/18.jpg","button_pressed":null,"name":"noRating","trial_type":"image-button-response","trial_index":46,"time_elapsed":236304,"internal_node_id":"0.0-46.0","participant_id":"APY5858P6BTDY"},{"rt":2079,"stimulus":"stimuli/18.jpg","button_pressed":"0","name":"valence","trial_type":"image-button-response","trial_index":47,"time_elapsed":238387,"internal_node_id":"0.0-47.0","participant_id":"APY5858P6BTDY"},{"rt":3260,"response":"80","name":"rating","trial_type":"image-slider-response","trial_index":48,"time_elapsed":241650,"internal_node_id":"0.0-48.0","participant_id":"APY5858P6BTDY"},{"rt":996,"stimulus":"stimuli/18.jpg","button_pressed":"1","name":"emotionType","trial_type":"image-button-response","trial_index":49,"time_elapsed":242652,"internal_node_id":"0.0-49.0","participant_id":"APY5858P6BTDY"},{"rt":null,"stimulus":"<p style=\"font-size: 48px;\">+</p>","key_press":null,"Name":"fixation","trial_type":"html-keyboard-response","trial_index":50,"time_elapsed":243157,"internal_node_id":"0.0-50.0","participant_id":"APY5858P6BTDY"},{"rt":null,"stimulus":"stimuli/24.jpg","button_pressed":null,"name":"noRating","trial_type":"image-button-response","trial_index":51,"time_elapsed":248160,"internal_node_id":"0.0-51.0","participant_id":"APY5858P6BTDY"},{"rt":2409,"stimulus":"stimuli/24.jpg","button_pressed":"0","name":"valence","trial_type":"image-button-response","trial_index":52,"time_elapsed":250573,"internal_node_id":"0.0-52.0","participant_id":"APY5858P6BTDY"},{"rt":3608,"response":"85","name":"rating","trial_type":"image-slider-response","trial_index":53,"time_elapsed":254187,"internal_node_id":"0.0-53.0","participant_id":"APY5858P6BTDY"},{"rt":1252,"stimulus":"stimuli/24.jpg","button_pressed":"1","name":"emotionType","trial_type":"image-button-response","trial_index":54,"time_elapsed":255442,"internal_node_id":"0.0-54.0","participant_id":"APY5858P6BTDY"},{"rt":null,"stimulus":"<p style=\"font-size: 48px;\">+</p>","key_press":null,"Name":"fixation","trial_type":"html-keyboard-response","trial_index":55,"time_elapsed":256946,"internal_node_id":"0.0-55.0","participant_id":"APY5858P6BTDY"},{"rt":null,"stimulus":"stimuli/41.jpg","button_pressed":null,"name":"noRating","trial_type":"image-button-response","trial_index":56,"time_elapsed":261949,"internal_node_id":"0.0-56.0","participant_id":"APY5858P6BTDY"},{"rt":1475,"stimulus":"stimuli/41.jpg","button_pressed":"0","name":"valence","trial_type":"image-button-response","trial_index":57,"time_elapsed":263427,"internal_node_id":"0.0-57.0","participant_id":"APY5858P6BTDY"},{"rt":3772,"response":"72","name":"rating","trial_type":"image-slider-response","trial_index":58,"time_elapsed":267202,"internal_node_id":"0.0-58.0","participant_id":"APY5858P6BTDY"},{"rt":2276,"stimulus":"stimuli/41.jpg","button_pressed":"0","name":"emotionType","trial_type":"image-button-response","trial_index":59,"time_elapsed":269483,"internal_node_id":"0.0-59.0","participant_id":"APY5858P6BTDY"},{"rt":6221,"responses":"{\"Q0\":\"sky\"}","trial_type":"survey-text","trial_index":60,"time_elapsed":275707,"internal_node_id":"0.0-60.0-0.0","participant_id":"APY5858P6BTDY"},{"rt":null,"stimulus":"<p style=\"font-size: 48px;\">+</p>","key_press":null,"Name":"fixation","trial_type":"html-keyboard-response","trial_index":61,"time_elapsed":276711,"internal_node_id":"0.0-61.0","participant_id":"APY5858P6BTDY"},{"rt":null,"stimulus":"stimuli/23.jpg","button_pressed":null,"name":"noRating","trial_type":"image-button-response","trial_index":62,"time_elapsed":281716,"internal_node_id":"0.0-62.0","participant_id":"APY5858P6BTDY"},{"rt":11387,"stimulus":"stimuli/23.jpg","button_pressed":"0","name":"valence","trial_type":"image-button-response","trial_index":63,"time_elapsed":293107,"internal_node_id":"0.0-63.0","participant_id":"APY5858P6BTDY"},{"rt":2396,"response":"76","name":"rating","trial_type":"image-slider-response","trial_index":64,"time_elapsed":295506,"internal_node_id":"0.0-64.0","participant_id":"APY5858P6BTDY"},{"rt":1468,"stimulus":"stimuli/23.jpg","button_pressed":"1","name":"emotionType","trial_type":"image-button-response","trial_index":65,"time_elapsed":296979,"internal_node_id":"0.0-65.0","participant_id":"APY5858P6BTDY"},{"rt":null,"stimulus":"<p style=\"font-size: 48px;\">+</p>","key_press":null,"Name":"fixation","trial_type":"html-keyboard-response","trial_index":66,"time_elapsed":297983,"internal_node_id":"0.0-66.0","participant_id":"APY5858P6BTDY"},{"rt":null,"stimulus":"stimuli/21.jpg","button_pressed":null,"name":"noRating","trial_type":"image-button-response","trial_index":67,"time_elapsed":302987,"internal_node_id":"0.0-67.0","participant_id":"APY5858P6BTDY"},{"rt":1618,"stimulus":"stimuli/21.jpg","button_pressed":"0","name":"valence","trial_type":"image-button-response","trial_index":68,"time_elapsed":304612,"internal_node_id":"0.0-68.0","participant_id":"APY5858P6BTDY"},{"rt":4170,"response":"90","name":"rating","trial_type":"image-slider-response","trial_index":69,"time_elapsed":308786,"internal_node_id":"0.0-69.0","participant_id":"APY5858P6BTDY"},{"rt":1764,"stimulus":"stimuli/21.jpg","button_pressed":"0","name":"emotionType","trial_type":"image-button-response","trial_index":70,"time_elapsed":310555,"internal_node_id":"0.0-70.0","participant_id":"APY5858P6BTDY"},{"rt":null,"stimulus":"<p style=\"font-size: 48px;\">+</p>","key_press":null,"Name":"fixation","trial_type":"html-keyboard-response","trial_index":71,"time_elapsed":311559,"internal_node_id":"0.0-71.0","participant_id":"APY5858P6BTDY"},{"rt":null,"stimulus":"stimuli/55.jpg","button_pressed":null,"name":"noRating","trial_type":"image-button-response","trial_index":72,"time_elapsed":316561,"internal_node_id":"0.0-72.0","participant_id":"APY5858P6BTDY"},{"rt":1350,"stimulus":"stimuli/55.jpg","button_pressed":"0","name":"valence","trial_type":"image-button-response","trial_index":73,"time_elapsed":317915,"internal_node_id":"0.0-73.0","participant_id":"APY5858P6BTDY"},{"rt":3164,"response":"84","name":"rating","trial_type":"image-slider-response","trial_index":74,"time_elapsed":321082,"internal_node_id":"0.0-74.0","participant_id":"APY5858P6BTDY"},{"rt":1123,"stimulus":"stimuli/55.jpg","button_pressed":"0","name":"emotionType","trial_type":"image-button-response","trial_index":75,"time_elapsed":322211,"internal_node_id":"0.0-75.0","participant_id":"APY5858P6BTDY"},{"rt":null,"stimulus":"<p style=\"font-size: 48px;\">+</p>","key_press":null,"Name":"fixation","trial_type":"html-keyboard-response","trial_index":76,"time_elapsed":323214,"internal_node_id":"0.0-76.0","participant_id":"APY5858P6BTDY"},{"rt":null,"stimulus":"stimuli/17.jpg","button_pressed":null,"name":"noRating","trial_type":"image-button-response","trial_index":77,"time_elapsed":328217,"internal_node_id":"0.0-77.0","participant_id":"APY5858P6BTDY"},{"rt":1270,"stimulus":"stimuli/17.jpg","button_pressed":"0","name":"valence","trial_type":"image-button-response","trial_index":78,"time_elapsed":329491,"internal_node_id":"0.0-78.0","participant_id":"APY5858P6BTDY"},{"rt":2693,"response":"63","name":"rating","trial_type":"image-slider-response","trial_index":79,"time_elapsed":332188,"internal_node_id":"0.0-79.0","participant_id":"APY5858P6BTDY"},{"rt":3608,"stimulus":"stimuli/17.jpg","button_pressed":"1","name":"emotionType","trial_type":"image-button-response","trial_index":80,"time_elapsed":335804,"internal_node_id":"0.0-80.0","participant_id":"APY5858P6BTDY"},{"rt":null,"stimulus":"<p style=\"font-size: 48px;\">+</p>","key_press":null,"Name":"fixation","trial_type":"html-keyboard-response","trial_index":81,"time_elapsed":336809,"internal_node_id":"0.0-81.0","participant_id":"APY5858P6BTDY"},{"rt":null,"stimulus":"stimuli/70.jpg","button_pressed":null,"name":"noRating","trial_type":"image-button-response","trial_index":82,"time_elapsed":341813,"internal_node_id":"0.0-82.0","participant_id":"APY5858P6BTDY"},{"rt":1698,"stimulus":"stimuli/70.jpg","button_pressed":"0","name":"valence","trial_type":"image-button-response","trial_index":83,"time_elapsed":343515,"internal_node_id":"0.0-83.0","participant_id":"APY5858P6BTDY"},{"rt":5027,"response":"70","name":"rating","trial_type":"image-slider-response","trial_index":84,"time_elapsed":348548,"internal_node_id":"0.0-84.0","participant_id":"APY5858P6BTDY"},{"rt":19618,"stimulus":"stimuli/70.jpg","button_pressed":"1","name":"emotionType","trial_type":"image-button-response","trial_index":85,"time_elapsed":368171,"internal_node_id":"0.0-85.0","participant_id":"APY5858P6BTDY"},{"rt":5084,"responses":"{\"Q0\":\"our\"}","trial_type":"survey-text","trial_index":86,"time_elapsed":373259,"internal_node_id":"0.0-86.0-0.0","participant_id":"APY5858P6BTDY"},{"rt":null,"stimulus":"<p style=\"font-size: 48px;\">+</p>","key_press":null,"Name":"fixation","trial_type":"html-keyboard-response","trial_index":87,"time_elapsed":374263,"internal_node_id":"0.0-87.0","participant_id":"APY5858P6BTDY"},{"rt":null,"stimulus":"stimuli/65.jpg","button_pressed":null,"name":"noRating","trial_type":"image-button-response","trial_index":88,"time_elapsed":379279,"internal_node_id":"0.0-88.0","participant_id":"APY5858P6BTDY"},{"rt":1768,"stimulus":"stimuli/65.jpg","button_pressed":"0","name":"valence","trial_type":"image-button-response","trial_index":89,"time_elapsed":381051,"internal_node_id":"0.0-89.0","participant_id":"APY5858P6BTDY"},{"rt":2140,"response":"81","name":"rating","trial_type":"image-slider-response","trial_index":90,"time_elapsed":383194,"internal_node_id":"0.0-90.0","participant_id":"APY5858P6BTDY"},{"rt":1605,"stimulus":"stimuli/65.jpg","button_pressed":"0","name":"emotionType","trial_type":"image-button-response","trial_index":91,"time_elapsed":384803,"internal_node_id":"0.0-91.0","participant_id":"APY5858P6BTDY"},{"rt":null,"stimulus":"<p style=\"font-size: 48px;\">+</p>","key_press":null,"Name":"fixation","trial_type":"html-keyboard-response","trial_index":92,"time_elapsed":385819,"internal_node_id":"0.0-92.0","participant_id":"APY5858P6BTDY"},{"rt":null,"stimulus":"stimuli/60.jpg","button_pressed":null,"name":"noRating","trial_type":"image-button-response","trial_index":93,"time_elapsed":390825,"internal_node_id":"0.0-93.0","participant_id":"APY5858P6BTDY"},{"rt":1094,"stimulus":"stimuli/60.jpg","button_pressed":"0","name":"valence","trial_type":"image-button-response","trial_index":94,"time_elapsed":391924,"internal_node_id":"0.0-94.0","participant_id":"APY5858P6BTDY"},{"rt":2865,"response":"79","name":"rating","trial_type":"image-slider-response","trial_index":95,"time_elapsed":394795,"internal_node_id":"0.0-95.0","participant_id":"APY5858P6BTDY"},{"rt":2316,"stimulus":"stimuli/60.jpg","button_pressed":"0","name":"emotionType","trial_type":"image-button-response","trial_index":96,"time_elapsed":397117,"internal_node_id":"0.0-96.0","participant_id":"APY5858P6BTDY"},{"rt":null,"stimulus":"<p style=\"font-size: 48px;\">+</p>","key_press":null,"Name":"fixation","trial_type":"html-keyboard-response","trial_index":97,"time_elapsed":398127,"internal_node_id":"0.0-97.0","participant_id":"APY5858P6BTDY"},{"rt":null,"stimulus":"stimuli/5.jpg","button_pressed":null,"name":"noRating","trial_type":"image-button-response","trial_index":98,"time_elapsed":403138,"internal_node_id":"0.0-98.0","participant_id":"APY5858P6BTDY"},{"rt":1238,"stimulus":"stimuli/5.jpg","button_pressed":"0","name":"valence","trial_type":"image-button-response","trial_index":99,"time_elapsed":404378,"internal_node_id":"0.0-99.0","participant_id":"APY5858P6BTDY"},{"rt":3652,"response":"76","name":"rating","trial_type":"image-slider-response","trial_index":100,"time_elapsed":408034,"internal_node_id":"0.0-100.0","participant_id":"APY5858P6BTDY"},{"rt":1285,"stimulus":"stimuli/5.jpg","button_pressed":"1","name":"emotionType","trial_type":"image-button-response","trial_index":101,"time_elapsed":409323,"internal_node_id":"0.0-101.0","participant_id":"APY5858P6BTDY"},{"rt":null,"stimulus":"<p style=\"font-size: 48px;\">+</p>","key_press":null,"Name":"fixation","trial_type":"html-keyboard-response","trial_index":102,"time_elapsed":410833,"internal_node_id":"0.0-102.0","participant_id":"APY5858P6BTDY"},{"rt":null,"stimulus":"stimuli/34.jpg","button_pressed":null,"name":"noRating","trial_type":"image-button-response","trial_index":103,"time_elapsed":415837,"internal_node_id":"0.0-103.0","participant_id":"APY5858P6BTDY"},{"rt":5978,"stimulus":"stimuli/34.jpg","button_pressed":"0","name":"valence","trial_type":"image-button-response","trial_index":104,"time_elapsed":421819,"internal_node_id":"0.0-104.0","participant_id":"APY5858P6BTDY"},{"rt":5172,"response":"83","name":"rating","trial_type":"image-slider-response","trial_index":105,"time_elapsed":426995,"internal_node_id":"0.0-105.0","participant_id":"APY5858P6BTDY"},{"rt":1506,"stimulus":"stimuli/34.jpg","button_pressed":"0","name":"emotionType","trial_type":"image-button-response","trial_index":106,"time_elapsed":428508,"internal_node_id":"0.0-106.0","participant_id":"APY5858P6BTDY"},{"rt":null,"stimulus":"<p style=\"font-size: 48px;\">+</p>","key_press":null,"Name":"fixation","trial_type":"html-keyboard-response","trial_index":107,"time_elapsed":429513,"internal_node_id":"0.0-107.0","participant_id":"APY5858P6BTDY"},{"rt":null,"stimulus":"stimuli/51.jpg","button_pressed":null,"name":"noRating","trial_type":"image-button-response","trial_index":108,"time_elapsed":434571,"internal_node_id":"0.0-108.0","participant_id":"APY5858P6BTDY"},{"rt":19050,"stimulus":"stimuli/51.jpg","button_pressed":"0","name":"valence","trial_type":"image-button-response","trial_index":109,"time_elapsed":453628,"internal_node_id":"0.0-109.0","participant_id":"APY5858P6BTDY"},{"rt":3362,"response":"69","name":"rating","trial_type":"image-slider-response","trial_index":110,"time_elapsed":456997,"internal_node_id":"0.0-110.0","participant_id":"APY5858P6BTDY"},{"rt":2028,"stimulus":"stimuli/51.jpg","button_pressed":"0","name":"emotionType","trial_type":"image-button-response","trial_index":111,"time_elapsed":459036,"internal_node_id":"0.0-111.0","participant_id":"APY5858P6BTDY"},{"rt":7173,"responses":"{\"Q0\":\"course\"}","trial_type":"survey-text","trial_index":112,"time_elapsed":466212,"internal_node_id":"0.0-112.0-0.0","participant_id":"APY5858P6BTDY"},{"rt":null,"stimulus":"<p style=\"font-size: 48px;\">+</p>","key_press":null,"Name":"fixation","trial_type":"html-keyboard-response","trial_index":113,"time_elapsed":467718,"internal_node_id":"0.0-113.0","participant_id":"APY5858P6BTDY"},{"rt":null,"stimulus":"stimuli/3.jpg","button_pressed":null,"name":"noRating","trial_type":"image-button-response","trial_index":114,"time_elapsed":472731,"internal_node_id":"0.0-114.0","participant_id":"APY5858P6BTDY"},{"rt":5508,"stimulus":"stimuli/3.jpg","button_pressed":"0","name":"valence","trial_type":"image-button-response","trial_index":115,"time_elapsed":478252,"internal_node_id":"0.0-115.0","participant_id":"APY5858P6BTDY"},{"rt":2226,"response":"78","name":"rating","trial_type":"image-slider-response","trial_index":116,"time_elapsed":480484,"internal_node_id":"0.0-116.0","participant_id":"APY5858P6BTDY"},{"rt":1253,"stimulus":"stimuli/3.jpg","button_pressed":"0","name":"emotionType","trial_type":"image-button-response","trial_index":117,"time_elapsed":481748,"internal_node_id":"0.0-117.0","participant_id":"APY5858P6BTDY"},{"rt":null,"stimulus":"<p style=\"font-size: 48px;\">+</p>","key_press":null,"Name":"fixation","trial_type":"html-keyboard-response","trial_index":118,"time_elapsed":482752,"internal_node_id":"0.0-118.0","participant_id":"APY5858P6BTDY"},{"rt":null,"stimulus":"stimuli/6.jpg","button_pressed":null,"name":"noRating","trial_type":"image-button-response","trial_index":119,"time_elapsed":487756,"internal_node_id":"0.0-119.0","participant_id":"APY5858P6BTDY"},{"rt":2004,"stimulus":"stimuli/6.jpg","button_pressed":"0","name":"valence","trial_type":"image-button-response","trial_index":120,"time_elapsed":489764,"internal_node_id":"0.0-120.0","participant_id":"APY5858P6BTDY"},{"rt":6043,"response":"85","name":"rating","trial_type":"image-slider-response","trial_index":121,"time_elapsed":495812,"internal_node_id":"0.0-121.0","participant_id":"APY5858P6BTDY"},{"rt":2532,"stimulus":"stimuli/6.jpg","button_pressed":"1","name":"emotionType","trial_type":"image-button-response","trial_index":122,"time_elapsed":498351,"internal_node_id":"0.0-122.0","participant_id":"APY5858P6BTDY"},{"rt":null,"stimulus":"<p style=\"font-size: 48px;\">+</p>","key_press":null,"Name":"fixation","trial_type":"html-keyboard-response","trial_index":123,"time_elapsed":499859,"internal_node_id":"0.0-123.0","participant_id":"APY5858P6BTDY"},{"rt":null,"stimulus":"stimuli/52.jpg","button_pressed":null,"name":"noRating","trial_type":"image-button-response","trial_index":124,"time_elapsed":504861,"internal_node_id":"0.0-124.0","participant_id":"APY5858P6BTDY"},{"rt":1498,"stimulus":"stimuli/52.jpg","button_pressed":"0","name":"valence","trial_type":"image-button-response","trial_index":125,"time_elapsed":506363,"internal_node_id":"0.0-125.0","participant_id":"APY5858P6BTDY"},{"rt":4412,"response":"0","name":"rating","trial_type":"image-slider-response","trial_index":126,"time_elapsed":510780,"internal_node_id":"0.0-126.0","participant_id":"APY5858P6BTDY"},{"rt":2785,"stimulus":"stimuli/52.jpg","button_pressed":"0","name":"emotionType","trial_type":"image-button-response","trial_index":127,"time_elapsed":515799,"internal_node_id":"0.0-127.0","participant_id":"APY5858P6BTDY"},{"rt":null,"stimulus":"<p style=\"font-size: 48px;\">+</p>","key_press":null,"Name":"fixation","trial_type":"html-keyboard-response","trial_index":128,"time_elapsed":516806,"internal_node_id":"0.0-128.0","participant_id":"APY5858P6BTDY"},{"rt":null,"stimulus":"stimuli/19.jpg","button_pressed":null,"name":"noRating","trial_type":"image-button-response","trial_index":129,"time_elapsed":521810,"internal_node_id":"0.0-129.0","participant_id":"APY5858P6BTDY"},{"rt":1854,"stimulus":"stimuli/19.jpg","button_pressed":"0","name":"valence","trial_type":"image-button-response","trial_index":130,"time_elapsed":523667,"internal_node_id":"0.0-130.0","participant_id":"APY5858P6BTDY"},{"rt":3068,"response":"75","name":"rating","trial_type":"image-slider-response","trial_index":131,"time_elapsed":526739,"internal_node_id":"0.0-131.0","participant_id":"APY5858P6BTDY"},{"rt":1796,"stimulus":"stimuli/19.jpg","button_pressed":"0","name":"emotionType","trial_type":"image-button-response","trial_index":132,"time_elapsed":528539,"internal_node_id":"0.0-132.0","participant_id":"APY5858P6BTDY"},{"rt":null,"stimulus":"<p style=\"font-size: 48px;\">+</p>","key_press":null,"Name":"fixation","trial_type":"html-keyboard-response","trial_index":133,"time_elapsed":529543,"internal_node_id":"0.0-133.0","participant_id":"APY5858P6BTDY"},{"rt":null,"stimulus":"stimuli/14.jpg","button_pressed":null,"name":"noRating","trial_type":"image-button-response","trial_index":134,"time_elapsed":534545,"internal_node_id":"0.0-134.0","participant_id":"APY5858P6BTDY"},{"rt":2487,"stimulus":"stimuli/14.jpg","button_pressed":"0","name":"valence","trial_type":"image-button-response","trial_index":135,"time_elapsed":537035,"internal_node_id":"0.0-135.0","participant_id":"APY5858P6BTDY"},{"rt":3723,"response":"77","name":"rating","trial_type":"image-slider-response","trial_index":136,"time_elapsed":540763,"internal_node_id":"0.0-136.0","participant_id":"APY5858P6BTDY"},{"rt":2155,"stimulus":"stimuli/14.jpg","button_pressed":"0","name":"emotionType","trial_type":"image-button-response","trial_index":137,"time_elapsed":542924,"internal_node_id":"0.0-137.0","participant_id":"APY5858P6BTDY"},{"rt":5260,"responses":"{\"Q0\":\"we\"}","trial_type":"survey-text","trial_index":138,"time_elapsed":548187,"internal_node_id":"0.0-138.0-0.0","participant_id":"APY5858P6BTDY"},{"rt":null,"stimulus":"<p style=\"font-size: 48px;\">+</p>","key_press":null,"Name":"fixation","trial_type":"html-keyboard-response","trial_index":139,"time_elapsed":549191,"internal_node_id":"0.0-139.0","participant_id":"APY5858P6BTDY"},{"rt":null,"stimulus":"stimuli/71.jpg","button_pressed":null,"name":"noRating","trial_type":"image-button-response","trial_index":140,"time_elapsed":554194,"internal_node_id":"0.0-140.0","participant_id":"APY5858P6BTDY"},{"rt":1229,"stimulus":"stimuli/71.jpg","button_pressed":"0","name":"valence","trial_type":"image-button-response","trial_index":141,"time_elapsed":555427,"internal_node_id":"0.0-141.0","participant_id":"APY5858P6BTDY"},{"rt":3092,"response":"68","name":"rating","trial_type":"image-slider-response","trial_index":142,"time_elapsed":558523,"internal_node_id":"0.0-142.0","participant_id":"APY5858P6BTDY"},{"rt":4244,"stimulus":"stimuli/71.jpg","button_pressed":"1","name":"emotionType","trial_type":"image-button-response","trial_index":143,"time_elapsed":562771,"internal_node_id":"0.0-143.0","participant_id":"APY5858P6BTDY"},{"rt":null,"stimulus":"<p style=\"font-size: 48px;\">+</p>","key_press":null,"Name":"fixation","trial_type":"html-keyboard-response","trial_index":144,"time_elapsed":563275,"internal_node_id":"0.0-144.0","participant_id":"APY5858P6BTDY"},{"rt":null,"stimulus":"stimuli/42.jpg","button_pressed":null,"name":"noRating","trial_type":"image-button-response","trial_index":145,"time_elapsed":568278,"internal_node_id":"0.0-145.0","participant_id":"APY5858P6BTDY"},{"rt":16890,"stimulus":"stimuli/42.jpg","button_pressed":"0","name":"valence","trial_type":"image-button-response","trial_index":146,"time_elapsed":585171,"internal_node_id":"0.0-146.0","participant_id":"APY5858P6BTDY"},{"rt":3699,"response":"49","name":"rating","trial_type":"image-slider-response","trial_index":147,"time_elapsed":588875,"internal_node_id":"0.0-147.0","participant_id":"APY5858P6BTDY"},{"rt":2653,"stimulus":"stimuli/42.jpg","button_pressed":"1","name":"emotionType","trial_type":"image-button-response","trial_index":148,"time_elapsed":591533,"internal_node_id":"0.0-148.0","participant_id":"APY5858P6BTDY"},{"rt":null,"stimulus":"<p style=\"font-size: 48px;\">+</p>","key_press":null,"Name":"fixation","trial_type":"html-keyboard-response","trial_index":149,"time_elapsed":593036,"internal_node_id":"0.0-149.0","participant_id":"APY5858P6BTDY"},{"rt":null,"stimulus":"stimuli/27.jpg","button_pressed":null,"name":"noRating","trial_type":"image-button-response","trial_index":150,"time_elapsed":598039,"internal_node_id":"0.0-150.0","participant_id":"APY5858P6BTDY"},{"rt":1026,"stimulus":"stimuli/27.jpg","button_pressed":"0","name":"valence","trial_type":"image-button-response","trial_index":151,"time_elapsed":599067,"internal_node_id":"0.0-151.0","participant_id":"APY5858P6BTDY"},{"rt":2884,"response":"71","name":"rating","trial_type":"image-slider-response","trial_index":152,"time_elapsed":601956,"internal_node_id":"0.0-152.0","participant_id":"APY5858P6BTDY"},{"rt":1674,"stimulus":"stimuli/27.jpg","button_pressed":"0","name":"emotionType","trial_type":"image-button-response","trial_index":153,"time_elapsed":603636,"internal_node_id":"0.0-153.0","participant_id":"APY5858P6BTDY"},{"rt":null,"stimulus":"<p style=\"font-size: 48px;\">+</p>","key_press":null,"Name":"fixation","trial_type":"html-keyboard-response","trial_index":154,"time_elapsed":604140,"internal_node_id":"0.0-154.0","participant_id":"APY5858P6BTDY"},{"rt":null,"stimulus":"stimuli/20.jpg","button_pressed":null,"name":"noRating","trial_type":"image-button-response","trial_index":155,"time_elapsed":609142,"internal_node_id":"0.0-155.0","participant_id":"APY5858P6BTDY"},{"rt":1370,"stimulus":"stimuli/20.jpg","button_pressed":"0","name":"valence","trial_type":"image-button-response","trial_index":156,"time_elapsed":610516,"internal_node_id":"0.0-156.0","participant_id":"APY5858P6BTDY"},{"rt":2828,"response":"83","name":"rating","trial_type":"image-slider-response","trial_index":157,"time_elapsed":613348,"internal_node_id":"0.0-157.0","participant_id":"APY5858P6BTDY"},{"rt":884,"stimulus":"stimuli/20.jpg","button_pressed":"1","name":"emotionType","trial_type":"image-button-response","trial_index":158,"time_elapsed":614238,"internal_node_id":"0.0-158.0","participant_id":"APY5858P6BTDY"},{"rt":null,"stimulus":"<p style=\"font-size: 48px;\">+</p>","key_press":null,"Name":"fixation","trial_type":"html-keyboard-response","trial_index":159,"time_elapsed":614742,"internal_node_id":"0.0-159.0","participant_id":"APY5858P6BTDY"},{"rt":null,"stimulus":"stimuli/28.jpg","button_pressed":null,"name":"noRating","trial_type":"image-button-response","trial_index":160,"time_elapsed":619747,"internal_node_id":"0.0-160.0","participant_id":"APY5858P6BTDY"},{"rt":1660,"stimulus":"stimuli/28.jpg","button_pressed":"0","name":"valence","trial_type":"image-button-response","trial_index":161,"time_elapsed":621412,"internal_node_id":"0.0-161.0","participant_id":"APY5858P6BTDY"},{"rt":2948,"response":"74","name":"rating","trial_type":"image-slider-response","trial_index":162,"time_elapsed":624364,"internal_node_id":"0.0-162.0","participant_id":"APY5858P6BTDY"},{"rt":6828,"stimulus":"stimuli/28.jpg","button_pressed":"0","name":"emotionType","trial_type":"image-button-response","trial_index":163,"time_elapsed":631197,"internal_node_id":"0.0-163.0","participant_id":"APY5858P6BTDY"},{"rt":8225,"stimulus":"stimuli/ins/Slide8.JPG","button_pressed":"0","trial_type":"image-button-response","trial_index":164,"time_elapsed":639427,"internal_node_id":"0.0-164.0","participant_id":"APY5858P6BTDY"}]