[{"rt":6611,"responses":"{\"Q0\":\"AR4UI9K92BUT3\"}","trial_type":"survey-text","trial_index":0,"time_elapsed":6622,"internal_node_id":"0.0-0.0-0.0","participant_id":"AR4UI9K92BUT3"},{"rt":14726,"stimulus":"stimuli/ins/Slide1.JPG","button_pressed":"0","Name":"instructions","trial_type":"image-button-response","trial_index":1,"time_elapsed":21356,"internal_node_id":"0.0-1.0","participant_id":"AR4UI9K92BUT3"},{"rt":11018,"stimulus":"stimuli/ins/Slide2.JPG","button_pressed":"0","Name":"instructions","trial_type":"image-button-response","trial_index":2,"time_elapsed":32377,"internal_node_id":"0.0-2.0","participant_id":"AR4UI9K92BUT3"},{"rt":10177,"stimulus":"stimuli/ins/Slide3.JPG","button_pressed":"0","Name":"instructions","trial_type":"image-button-response","trial_index":3,"time_elapsed":42557,"internal_node_id":"0.0-3.0","participant_id":"AR4UI9K92BUT3"},{"rt":12486,"stimulus":"stimuli/ins/Slide4.JPG","button_pressed":"0","Name":"instructions","trial_type":"image-button-response","trial_index":4,"time_elapsed":55047,"internal_node_id":"0.0-4.0","participant_id":"AR4UI9K92BUT3"},{"rt":6263,"stimulus":"stimuli/ins/Slide5.JPG","button_pressed":"0","Name":"instructions","trial_type":"image-button-response","trial_index":5,"time_elapsed":61313,"internal_node_id":"0.0-5.0","participant_id":"AR4UI9K92BUT3"},{"rt":16034,"stimulus":"stimuli/ins/Slide6.JPG","button_pressed":"0","Name":"instructions","trial_type":"image-button-response","trial_index":6,"time_elapsed":77350,"internal_node_id":"0.0-6.0","participant_id":"AR4UI9K92BUT3"},{"rt":3202,"stimulus":"stimuli/ins/Slide7.JPG","button_pressed":"0","Name":"instructions","trial_type":"image-button-response","trial_index":7,"time_elapsed":80555,"internal_node_id":"0.0-7.0","participant_id":"AR4UI9K92BUT3"},{"rt":18301,"responses":"{\"Q0\":\"but\"}","trial_type":"survey-text","trial_index":8,"time_elapsed":98862,"internal_node_id":"0.0-8.0-0.0","participant_id":"AR4UI9K92BUT3"},{"rt":null,"stimulus":"<p style=\"font-size: 48px;\">+</p>","key_press":null,"Name":"fixation","trial_type":"html-keyboard-response","trial_index":9,"time_elapsed":100370,"internal_node_id":"0.0-9.0","participant_id":"AR4UI9K92BUT3"},{"rt":null,"stimulus":"stimuli/53.jpg","button_pressed":null,"name":"noRating","trial_type":"image-button-response","trial_index":10,"time_elapsed":105374,"internal_node_id":"0.0-10.0","participant_id":"AR4UI9K92BUT3"},{"rt":11925,"stimulus":"stimuli/53.jpg","button_pressed":"0","name":"valence","trial_type":"image-button-response","trial_index":11,"time_elapsed":117304,"internal_node_id":"0.0-11.0","participant_id":"AR4UI9K92BUT3"},{"rt":8551,"response":"100","name":"rating","trial_type":"image-slider-response","trial_index":12,"time_elapsed":125863,"internal_node_id":"0.0-12.0","participant_id":"AR4UI9K92BUT3"},{"rt":6446,"stimulus":"stimuli/53.jpg","button_pressed":"1","name":"emotionType","trial_type":"image-button-response","trial_index":13,"time_elapsed":132316,"internal_node_id":"0.0-13.0","participant_id":"AR4UI9K92BUT3"},{"rt":null,"stimulus":"<p style=\"font-size: 48px;\">+</p>","key_press":null,"Name":"fixation","trial_type":"html-keyboard-response","trial_index":14,"time_elapsed":133323,"internal_node_id":"0.0-14.0","participant_id":"AR4UI9K92BUT3"},{"rt":null,"stimulus":"stimuli/59.jpg","button_pressed":null,"name":"noRating","trial_type":"image-button-response","trial_index":15,"time_elapsed":138327,"internal_node_id":"0.0-15.0","participant_id":"AR4UI9K92BUT3"},{"rt":3460,"stimulus":"stimuli/59.jpg","button_pressed":"0","name":"valence","trial_type":"image-button-response","trial_index":16,"time_elapsed":141790,"internal_node_id":"0.0-16.0","participant_id":"AR4UI9K92BUT3"},{"rt":7223,"response":"100","name":"rating","trial_type":"image-slider-response","trial_index":17,"time_elapsed":149017,"internal_node_id":"0.0-17.0","participant_id":"AR4UI9K92BUT3"},{"rt":4850,"stimulus":"stimuli/59.jpg","button_pressed":"1","name":"emotionType","trial_type":"image-button-response","trial_index":18,"time_elapsed":153871,"internal_node_id":"0.0-18.0","participant_id":"AR4UI9K92BUT3"},{"rt":null,"stimulus":"<p style=\"font-size: 48px;\">+</p>","key_press":null,"Name":"fixation","trial_type":"html-keyboard-response","trial_index":19,"time_elapsed":154876,"internal_node_id":"0.0-19.0","participant_id":"AR4UI9K92BUT3"},{"rt":null,"stimulus":"stimuli/1.jpg","button_pressed":null,"name":"noRating","trial_type":"image-button-response","trial_index":20,"time_elapsed":159879,"internal_node_id":"0.0-20.0","participant_id":"AR4UI9K92BUT3"},{"rt":3177,"stimulus":"stimuli/1.jpg","button_pressed":"0","name":"valence","trial_type":"image-button-response","trial_index":21,"time_elapsed":163060,"internal_node_id":"0.0-21.0","participant_id":"AR4UI9K92BUT3"},{"rt":6289,"response":"100","name":"rating","trial_type":"image-slider-response","trial_index":22,"time_elapsed":169353,"internal_node_id":"0.0-22.0","participant_id":"AR4UI9K92BUT3"},{"rt":3586,"stimulus":"stimuli/1.jpg","button_pressed":"0","name":"emotionType","trial_type":"image-button-response","trial_index":23,"time_elapsed":172944,"internal_node_id":"0.0-23.0","participant_id":"AR4UI9K92BUT3"},{"rt":null,"stimulus":"<p style=\"font-size: 48px;\">+</p>","key_press":null,"Name":"fixation","trial_type":"html-keyboard-response","trial_index":24,"time_elapsed":173947,"internal_node_id":"0.0-24.0","participant_id":"AR4UI9K92BUT3"},{"rt":null,"stimulus":"stimuli/50.jpg","button_pressed":null,"name":"noRating","trial_type":"image-button-response","trial_index":25,"time_elapsed":178949,"internal_node_id":"0.0-25.0","participant_id":"AR4UI9K92BUT3"},{"rt":2495,"stimulus":"stimuli/50.jpg","button_pressed":"0","name":"valence","trial_type":"image-button-response","trial_index":26,"time_elapsed":181446,"internal_node_id":"0.0-26.0","participant_id":"AR4UI9K92BUT3"},{"rt":6580,"response":"73","name":"rating","trial_type":"image-slider-response","trial_index":27,"time_elapsed":188030,"internal_node_id":"0.0-27.0","participant_id":"AR4UI9K92BUT3"},{"rt":5972,"stimulus":"stimuli/50.jpg","button_pressed":"1","name":"emotionType","trial_type":"image-button-response","trial_index":28,"time_elapsed":194007,"internal_node_id":"0.0-28.0","participant_id":"AR4UI9K92BUT3"},{"rt":null,"stimulus":"<p style=\"font-size: 48px;\">+</p>","key_press":null,"Name":"fixation","trial_type":"html-keyboard-response","trial_index":29,"time_elapsed":194510,"internal_node_id":"0.0-29.0","participant_id":"AR4UI9K92BUT3"},{"rt":null,"stimulus":"stimuli/51.jpg","button_pressed":null,"name":"noRating","trial_type":"image-button-response","trial_index":30,"time_elapsed":199514,"internal_node_id":"0.0-30.0","participant_id":"AR4UI9K92BUT3"},{"rt":2006,"stimulus":"stimuli/51.jpg","button_pressed":"0","name":"valence","trial_type":"image-button-response","trial_index":31,"time_elapsed":201523,"internal_node_id":"0.0-31.0","participant_id":"AR4UI9K92BUT3"},{"rt":6148,"response":"100","name":"rating","trial_type":"image-slider-response","trial_index":32,"time_elapsed":207676,"internal_node_id":"0.0-32.0","participant_id":"AR4UI9K92BUT3"},{"rt":2185,"stimulus":"stimuli/51.jpg","button_pressed":"0","name":"emotionType","trial_type":"image-button-response","trial_index":33,"time_elapsed":209864,"internal_node_id":"0.0-33.0","participant_id":"AR4UI9K92BUT3"},{"rt":5616,"responses":"{\"Q0\":\"rock\"}","trial_type":"survey-text","trial_index":34,"time_elapsed":215482,"internal_node_id":"0.0-34.0-0.0","participant_id":"AR4UI9K92BUT3"},{"rt":null,"stimulus":"<p style=\"font-size: 48px;\">+</p>","key_press":null,"Name":"fixation","trial_type":"html-keyboard-response","trial_index":35,"time_elapsed":216485,"internal_node_id":"0.0-35.0","participant_id":"AR4UI9K92BUT3"},{"rt":null,"stimulus":"stimuli/61.jpg","button_pressed":null,"name":"noRating","trial_type":"image-button-response","trial_index":36,"time_elapsed":221488,"internal_node_id":"0.0-36.0","participant_id":"AR4UI9K92BUT3"},{"rt":3040,"stimulus":"stimuli/61.jpg","button_pressed":"0","name":"valence","trial_type":"image-button-response","trial_index":37,"time_elapsed":224530,"internal_node_id":"0.0-37.0","participant_id":"AR4UI9K92BUT3"},{"rt":7272,"response":"100","name":"rating","trial_type":"image-slider-response","trial_index":38,"time_elapsed":231806,"internal_node_id":"0.0-38.0","participant_id":"AR4UI9K92BUT3"},{"rt":4542,"stimulus":"stimuli/61.jpg","button_pressed":"1","name":"emotionType","trial_type":"image-button-response","trial_index":39,"time_elapsed":236353,"internal_node_id":"0.0-39.0","participant_id":"AR4UI9K92BUT3"},{"rt":null,"stimulus":"<p style=\"font-size: 48px;\">+</p>","key_press":null,"Name":"fixation","trial_type":"html-keyboard-response","trial_index":40,"time_elapsed":236855,"internal_node_id":"0.0-40.0","participant_id":"AR4UI9K92BUT3"},{"rt":null,"stimulus":"stimuli/47.jpg","button_pressed":null,"name":"noRating","trial_type":"image-button-response","trial_index":41,"time_elapsed":241858,"internal_node_id":"0.0-41.0","participant_id":"AR4UI9K92BUT3"},{"rt":1699,"stimulus":"stimuli/47.jpg","button_pressed":"0","name":"valence","trial_type":"image-button-response","trial_index":42,"time_elapsed":243562,"internal_node_id":"0.0-42.0","participant_id":"AR4UI9K92BUT3"},{"rt":8410,"response":"100","name":"rating","trial_type":"image-slider-response","trial_index":43,"time_elapsed":251975,"internal_node_id":"0.0-43.0","participant_id":"AR4UI9K92BUT3"},{"rt":1952,"stimulus":"stimuli/47.jpg","button_pressed":"1","name":"emotionType","trial_type":"image-button-response","trial_index":44,"time_elapsed":253931,"internal_node_id":"0.0-44.0","participant_id":"AR4UI9K92BUT3"},{"rt":null,"stimulus":"<p style=\"font-size: 48px;\">+</p>","key_press":null,"Name":"fixation","trial_type":"html-keyboard-response","trial_index":45,"time_elapsed":254436,"internal_node_id":"0.0-45.0","participant_id":"AR4UI9K92BUT3"},{"rt":null,"stimulus":"stimuli/31.jpg","button_pressed":null,"name":"noRating","trial_type":"image-button-response","trial_index":46,"time_elapsed":259440,"internal_node_id":"0.0-46.0","participant_id":"AR4UI9K92BUT3"},{"rt":2574,"stimulus":"stimuli/31.jpg","button_pressed":"0","name":"valence","trial_type":"image-button-response","trial_index":47,"time_elapsed":262016,"internal_node_id":"0.0-47.0","participant_id":"AR4UI9K92BUT3"},{"rt":5024,"response":"100","name":"rating","trial_type":"image-slider-response","trial_index":48,"time_elapsed":267044,"internal_node_id":"0.0-48.0","participant_id":"AR4UI9K92BUT3"},{"rt":1500,"stimulus":"stimuli/31.jpg","button_pressed":"1","name":"emotionType","trial_type":"image-button-response","trial_index":49,"time_elapsed":268547,"internal_node_id":"0.0-49.0","participant_id":"AR4UI9K92BUT3"},{"rt":null,"stimulus":"<p style=\"font-size: 48px;\">+</p>","key_press":null,"Name":"fixation","trial_type":"html-keyboard-response","trial_index":50,"time_elapsed":269550,"internal_node_id":"0.0-50.0","participant_id":"AR4UI9K92BUT3"},{"rt":null,"stimulus":"stimuli/71.jpg","button_pressed":null,"name":"noRating","trial_type":"image-button-response","trial_index":51,"time_elapsed":274552,"internal_node_id":"0.0-51.0","participant_id":"AR4UI9K92BUT3"},{"rt":1566,"stimulus":"stimuli/71.jpg","button_pressed":"0","name":"valence","trial_type":"image-button-response","trial_index":52,"time_elapsed":276120,"internal_node_id":"0.0-52.0","participant_id":"AR4UI9K92BUT3"},{"rt":6902,"response":"100","name":"rating","trial_type":"image-slider-response","trial_index":53,"time_elapsed":283025,"internal_node_id":"0.0-53.0","participant_id":"AR4UI9K92BUT3"},{"rt":1711,"stimulus":"stimuli/71.jpg","button_pressed":"1","name":"emotionType","trial_type":"image-button-response","trial_index":54,"time_elapsed":284740,"internal_node_id":"0.0-54.0","participant_id":"AR4UI9K92BUT3"},{"rt":null,"stimulus":"<p style=\"font-size: 48px;\">+</p>","key_press":null,"Name":"fixation","trial_type":"html-keyboard-response","trial_index":55,"time_elapsed":286243,"internal_node_id":"0.0-55.0","participant_id":"AR4UI9K92BUT3"},{"rt":null,"stimulus":"stimuli/10.jpg","button_pressed":null,"name":"noRating","trial_type":"image-button-response","trial_index":56,"time_elapsed":291245,"internal_node_id":"0.0-56.0","participant_id":"AR4UI9K92BUT3"},{"rt":1984,"stimulus":"stimuli/10.jpg","button_pressed":"0","name":"valence","trial_type":"image-button-response","trial_index":57,"time_elapsed":293233,"internal_node_id":"0.0-57.0","participant_id":"AR4UI9K92BUT3"},{"rt":6717,"response":"100","name":"rating","trial_type":"image-slider-response","trial_index":58,"time_elapsed":299954,"internal_node_id":"0.0-58.0","participant_id":"AR4UI9K92BUT3"},{"rt":2368,"stimulus":"stimuli/10.jpg","button_pressed":"0","name":"emotionType","trial_type":"image-button-response","trial_index":59,"time_elapsed":302326,"internal_node_id":"0.0-59.0","participant_id":"AR4UI9K92BUT3"},{"rt":5824,"responses":"{\"Q0\":\"sky\"}","trial_type":"survey-text","trial_index":60,"time_elapsed":308152,"internal_node_id":"0.0-60.0-0.0","participant_id":"AR4UI9K92BUT3"},{"rt":null,"stimulus":"<p style=\"font-size: 48px;\">+</p>","key_press":null,"Name":"fixation","trial_type":"html-keyboard-response","trial_index":61,"time_elapsed":309156,"internal_node_id":"0.0-61.0","participant_id":"AR4UI9K92BUT3"},{"rt":null,"stimulus":"stimuli/15.jpg","button_pressed":null,"name":"noRating","trial_type":"image-button-response","trial_index":62,"time_elapsed":314159,"internal_node_id":"0.0-62.0","participant_id":"AR4UI9K92BUT3"},{"rt":1948,"stimulus":"stimuli/15.jpg","button_pressed":"0","name":"valence","trial_type":"image-button-response","trial_index":63,"time_elapsed":316109,"internal_node_id":"0.0-63.0","participant_id":"AR4UI9K92BUT3"},{"rt":8076,"response":"99","name":"rating","trial_type":"image-slider-response","trial_index":64,"time_elapsed":324188,"internal_node_id":"0.0-64.0","participant_id":"AR4UI9K92BUT3"},{"rt":4703,"stimulus":"stimuli/15.jpg","button_pressed":"0","name":"emotionType","trial_type":"image-button-response","trial_index":65,"time_elapsed":328895,"internal_node_id":"0.0-65.0","participant_id":"AR4UI9K92BUT3"},{"rt":null,"stimulus":"<p style=\"font-size: 48px;\">+</p>","key_press":null,"Name":"fixation","trial_type":"html-keyboard-response","trial_index":66,"time_elapsed":329400,"internal_node_id":"0.0-66.0","participant_id":"AR4UI9K92BUT3"},{"rt":null,"stimulus":"stimuli/7.jpg","button_pressed":null,"name":"noRating","trial_type":"image-button-response","trial_index":67,"time_elapsed":334403,"internal_node_id":"0.0-67.0","participant_id":"AR4UI9K92BUT3"},{"rt":2338,"stimulus":"stimuli/7.jpg","button_pressed":"0","name":"valence","trial_type":"image-button-response","trial_index":68,"time_elapsed":336745,"internal_node_id":"0.0-68.0","participant_id":"AR4UI9K92BUT3"},{"rt":6491,"response":"99","name":"rating","trial_type":"image-slider-response","trial_index":69,"time_elapsed":343241,"internal_node_id":"0.0-69.0","participant_id":"AR4UI9K92BUT3"},{"rt":2299,"stimulus":"stimuli/7.jpg","button_pressed":"1","name":"emotionType","trial_type":"image-button-response","trial_index":70,"time_elapsed":345546,"internal_node_id":"0.0-70.0","participant_id":"AR4UI9K92BUT3"},{"rt":null,"stimulus":"<p style=\"font-size: 48px;\">+</p>","key_press":null,"Name":"fixation","trial_type":"html-keyboard-response","trial_index":71,"time_elapsed":346049,"internal_node_id":"0.0-71.0","participant_id":"AR4UI9K92BUT3"},{"rt":null,"stimulus":"stimuli/67.jpg","button_pressed":null,"name":"noRating","trial_type":"image-button-response","trial_index":72,"time_elapsed":351053,"internal_node_id":"0.0-72.0","participant_id":"AR4UI9K92BUT3"},{"rt":3430,"stimulus":"stimuli/67.jpg","button_pressed":"0","name":"valence","trial_type":"image-button-response","trial_index":73,"time_elapsed":354485,"internal_node_id":"0.0-73.0","participant_id":"AR4UI9K92BUT3"},{"rt":7294,"response":"100","name":"rating","trial_type":"image-slider-response","trial_index":74,"time_elapsed":361783,"internal_node_id":"0.0-74.0","participant_id":"AR4UI9K92BUT3"},{"rt":2579,"stimulus":"stimuli/67.jpg","button_pressed":"1","name":"emotionType","trial_type":"image-button-response","trial_index":75,"time_elapsed":364366,"internal_node_id":"0.0-75.0","participant_id":"AR4UI9K92BUT3"},{"rt":null,"stimulus":"<p style=\"font-size: 48px;\">+</p>","key_press":null,"Name":"fixation","trial_type":"html-keyboard-response","trial_index":76,"time_elapsed":364868,"internal_node_id":"0.0-76.0","participant_id":"AR4UI9K92BUT3"},{"rt":null,"stimulus":"stimuli/68.jpg","button_pressed":null,"name":"noRating","trial_type":"image-button-response","trial_index":77,"time_elapsed":369872,"internal_node_id":"0.0-77.0","participant_id":"AR4UI9K92BUT3"},{"rt":2358,"stimulus":"stimuli/68.jpg","button_pressed":"0","name":"valence","trial_type":"image-button-response","trial_index":78,"time_elapsed":372232,"internal_node_id":"0.0-78.0","participant_id":"AR4UI9K92BUT3"},{"rt":8679,"response":"100","name":"rating","trial_type":"image-slider-response","trial_index":79,"time_elapsed":380915,"internal_node_id":"0.0-79.0","participant_id":"AR4UI9K92BUT3"},{"rt":2332,"stimulus":"stimuli/68.jpg","button_pressed":"1","name":"emotionType","trial_type":"image-button-response","trial_index":80,"time_elapsed":383251,"internal_node_id":"0.0-80.0","participant_id":"AR4UI9K92BUT3"},{"rt":null,"stimulus":"<p style=\"font-size: 48px;\">+</p>","key_press":null,"Name":"fixation","trial_type":"html-keyboard-response","trial_index":81,"time_elapsed":384753,"internal_node_id":"0.0-81.0","participant_id":"AR4UI9K92BUT3"},{"rt":null,"stimulus":"stimuli/26.jpg","button_pressed":null,"name":"noRating","trial_type":"image-button-response","trial_index":82,"time_elapsed":389756,"internal_node_id":"0.0-82.0","participant_id":"AR4UI9K92BUT3"},{"rt":1561,"stimulus":"stimuli/26.jpg","button_pressed":"0","name":"valence","trial_type":"image-button-response","trial_index":83,"time_elapsed":391320,"internal_node_id":"0.0-83.0","participant_id":"AR4UI9K92BUT3"},{"rt":9745,"response":"99","name":"rating","trial_type":"image-slider-response","trial_index":84,"time_elapsed":401068,"internal_node_id":"0.0-84.0","participant_id":"AR4UI9K92BUT3"},{"rt":1375,"stimulus":"stimuli/26.jpg","button_pressed":"1","name":"emotionType","trial_type":"image-button-response","trial_index":85,"time_elapsed":402447,"internal_node_id":"0.0-85.0","participant_id":"AR4UI9K92BUT3"},{"rt":5351,"responses":"{\"Q0\":\"our\"}","trial_type":"survey-text","trial_index":86,"time_elapsed":407802,"internal_node_id":"0.0-86.0-0.0","participant_id":"AR4UI9K92BUT3"},{"rt":null,"stimulus":"<p style=\"font-size: 48px;\">+</p>","key_press":null,"Name":"fixation","trial_type":"html-keyboard-response","trial_index":87,"time_elapsed":409306,"internal_node_id":"0.0-87.0","participant_id":"AR4UI9K92BUT3"},{"rt":null,"stimulus":"stimuli/39.jpg","button_pressed":null,"name":"noRating","trial_type":"image-button-response","trial_index":88,"time_elapsed":414308,"internal_node_id":"0.0-88.0","participant_id":"AR4UI9K92BUT3"},{"rt":2203,"stimulus":"stimuli/39.jpg","button_pressed":"0","name":"valence","trial_type":"image-button-response","trial_index":89,"time_elapsed":416514,"internal_node_id":"0.0-89.0","participant_id":"AR4UI9K92BUT3"},{"rt":9589,"response":"99","name":"rating","trial_type":"image-slider-response","trial_index":90,"time_elapsed":426108,"internal_node_id":"0.0-90.0","participant_id":"AR4UI9K92BUT3"},{"rt":1389,"stimulus":"stimuli/39.jpg","button_pressed":"0","name":"emotionType","trial_type":"image-button-response","trial_index":91,"time_elapsed":427502,"internal_node_id":"0.0-91.0","participant_id":"AR4UI9K92BUT3"},{"rt":null,"stimulus":"<p style=\"font-size: 48px;\">+</p>","key_press":null,"Name":"fixation","trial_type":"html-keyboard-response","trial_index":92,"time_elapsed":428508,"internal_node_id":"0.0-92.0","participant_id":"AR4UI9K92BUT3"},{"rt":null,"stimulus":"stimuli/5.jpg","button_pressed":null,"name":"noRating","trial_type":"image-button-response","trial_index":93,"time_elapsed":433513,"internal_node_id":"0.0-93.0","participant_id":"AR4UI9K92BUT3"},{"rt":6352,"stimulus":"stimuli/5.jpg","button_pressed":"0","name":"valence","trial_type":"image-button-response","trial_index":94,"time_elapsed":439868,"internal_node_id":"0.0-94.0","participant_id":"AR4UI9K92BUT3"},{"rt":7811,"response":"100","name":"rating","trial_type":"image-slider-response","trial_index":95,"time_elapsed":447684,"internal_node_id":"0.0-95.0","participant_id":"AR4UI9K92BUT3"},{"rt":3112,"stimulus":"stimuli/5.jpg","button_pressed":"0","name":"emotionType","trial_type":"image-button-response","trial_index":96,"time_elapsed":450800,"internal_node_id":"0.0-96.0","participant_id":"AR4UI9K92BUT3"},{"rt":null,"stimulus":"<p style=\"font-size: 48px;\">+</p>","key_press":null,"Name":"fixation","trial_type":"html-keyboard-response","trial_index":97,"time_elapsed":451302,"internal_node_id":"0.0-97.0","participant_id":"AR4UI9K92BUT3"},{"rt":null,"stimulus":"stimuli/32.jpg","button_pressed":null,"name":"noRating","trial_type":"image-button-response","trial_index":98,"time_elapsed":456306,"internal_node_id":"0.0-98.0","participant_id":"AR4UI9K92BUT3"},{"rt":9615,"stimulus":"stimuli/32.jpg","button_pressed":"0","name":"valence","trial_type":"image-button-response","trial_index":99,"time_elapsed":465923,"internal_node_id":"0.0-99.0","participant_id":"AR4UI9K92BUT3"},{"rt":9840,"response":"99","name":"rating","trial_type":"image-slider-response","trial_index":100,"time_elapsed":475767,"internal_node_id":"0.0-100.0","participant_id":"AR4UI9K92BUT3"},{"rt":2477,"stimulus":"stimuli/32.jpg","button_pressed":"0","name":"emotionType","trial_type":"image-button-response","trial_index":101,"time_elapsed":478249,"internal_node_id":"0.0-101.0","participant_id":"AR4UI9K92BUT3"},{"rt":null,"stimulus":"<p style=\"font-size: 48px;\">+</p>","key_press":null,"Name":"fixation","trial_type":"html-keyboard-response","trial_index":102,"time_elapsed":479752,"internal_node_id":"0.0-102.0","participant_id":"AR4UI9K92BUT3"},{"rt":null,"stimulus":"stimuli/64.jpg","button_pressed":null,"name":"noRating","trial_type":"image-button-response","trial_index":103,"time_elapsed":484756,"internal_node_id":"0.0-103.0","participant_id":"AR4UI9K92BUT3"},{"rt":2151,"stimulus":"stimuli/64.jpg","button_pressed":"0","name":"valence","trial_type":"image-button-response","trial_index":104,"time_elapsed":486910,"internal_node_id":"0.0-104.0","participant_id":"AR4UI9K92BUT3"},{"rt":6696,"response":"81","name":"rating","trial_type":"image-slider-response","trial_index":105,"time_elapsed":493610,"internal_node_id":"0.0-105.0","participant_id":"AR4UI9K92BUT3"},{"rt":1915,"stimulus":"stimuli/64.jpg","button_pressed":"0","name":"emotionType","trial_type":"image-button-response","trial_index":106,"time_elapsed":495530,"internal_node_id":"0.0-106.0","participant_id":"AR4UI9K92BUT3"},{"rt":null,"stimulus":"<p style=\"font-size: 48px;\">+</p>","key_press":null,"Name":"fixation","trial_type":"html-keyboard-response","trial_index":107,"time_elapsed":496034,"internal_node_id":"0.0-107.0","participant_id":"AR4UI9K92BUT3"},{"rt":null,"stimulus":"stimuli/14.jpg","button_pressed":null,"name":"noRating","trial_type":"image-button-response","trial_index":108,"time_elapsed":501036,"internal_node_id":"0.0-108.0","participant_id":"AR4UI9K92BUT3"},{"rt":1971,"stimulus":"stimuli/14.jpg","button_pressed":"0","name":"valence","trial_type":"image-button-response","trial_index":109,"time_elapsed":503009,"internal_node_id":"0.0-109.0","participant_id":"AR4UI9K92BUT3"},{"rt":5785,"response":"100","name":"rating","trial_type":"image-slider-response","trial_index":110,"time_elapsed":508798,"internal_node_id":"0.0-110.0","participant_id":"AR4UI9K92BUT3"},{"rt":1850,"stimulus":"stimuli/14.jpg","button_pressed":"1","name":"emotionType","trial_type":"image-button-response","trial_index":111,"time_elapsed":510652,"internal_node_id":"0.0-111.0","participant_id":"AR4UI9K92BUT3"},{"rt":10948,"responses":"{\"Q0\":\"course\"}","trial_type":"survey-text","trial_index":112,"time_elapsed":521604,"internal_node_id":"0.0-112.0-0.0","participant_id":"AR4UI9K92BUT3"},{"rt":null,"stimulus":"<p style=\"font-size: 48px;\">+</p>","key_press":null,"Name":"fixation","trial_type":"html-keyboard-response","trial_index":113,"time_elapsed":522609,"internal_node_id":"0.0-113.0","participant_id":"AR4UI9K92BUT3"},{"rt":null,"stimulus":"stimuli/34.jpg","button_pressed":null,"name":"noRating","trial_type":"image-button-response","trial_index":114,"time_elapsed":527613,"internal_node_id":"0.0-114.0","participant_id":"AR4UI9K92BUT3"},{"rt":63687,"stimulus":"stimuli/34.jpg","button_pressed":"0","name":"valence","trial_type":"image-button-response","trial_index":115,"time_elapsed":591301,"internal_node_id":"0.0-115.0","participant_id":"AR4UI9K92BUT3"},{"rt":10790,"response":"66","name":"rating","trial_type":"image-slider-response","trial_index":116,"time_elapsed":602097,"internal_node_id":"0.0-116.0","participant_id":"AR4UI9K92BUT3"},{"rt":5070,"stimulus":"stimuli/34.jpg","button_pressed":"0","name":"emotionType","trial_type":"image-button-response","trial_index":117,"time_elapsed":607171,"internal_node_id":"0.0-117.0","participant_id":"AR4UI9K92BUT3"},{"rt":null,"stimulus":"<p style=\"font-size: 48px;\">+</p>","key_press":null,"Name":"fixation","trial_type":"html-keyboard-response","trial_index":118,"time_elapsed":608673,"internal_node_id":"0.0-118.0","participant_id":"AR4UI9K92BUT3"},{"rt":null,"stimulus":"stimuli/43.jpg","button_pressed":null,"name":"noRating","trial_type":"image-button-response","trial_index":119,"time_elapsed":613676,"internal_node_id":"0.0-119.0","participant_id":"AR4UI9K92BUT3"},{"rt":1816,"stimulus":"stimuli/43.jpg","button_pressed":"0","name":"valence","trial_type":"image-button-response","trial_index":120,"time_elapsed":615494,"internal_node_id":"0.0-120.0","participant_id":"AR4UI9K92BUT3"},{"rt":6385,"response":"66","name":"rating","trial_type":"image-slider-response","trial_index":121,"time_elapsed":621883,"internal_node_id":"0.0-121.0","participant_id":"AR4UI9K92BUT3"},{"rt":2025,"stimulus":"stimuli/43.jpg","button_pressed":"0","name":"emotionType","trial_type":"image-button-response","trial_index":122,"time_elapsed":623913,"internal_node_id":"0.0-122.0","participant_id":"AR4UI9K92BUT3"},{"rt":null,"stimulus":"<p style=\"font-size: 48px;\">+</p>","key_press":null,"Name":"fixation","trial_type":"html-keyboard-response","trial_index":123,"time_elapsed":625417,"internal_node_id":"0.0-123.0","participant_id":"AR4UI9K92BUT3"},{"rt":null,"stimulus":"stimuli/45.jpg","button_pressed":null,"name":"noRating","trial_type":"image-button-response","trial_index":124,"time_elapsed":630420,"internal_node_id":"0.0-124.0","participant_id":"AR4UI9K92BUT3"},{"rt":2037,"stimulus":"stimuli/45.jpg","button_pressed":"0","name":"valence","trial_type":"image-button-response","trial_index":125,"time_elapsed":632459,"internal_node_id":"0.0-125.0","participant_id":"AR4UI9K92BUT3"},{"rt":3801,"response":"0","name":"rating","trial_type":"image-slider-response","trial_index":126,"time_elapsed":636264,"internal_node_id":"0.0-126.0","participant_id":"AR4UI9K92BUT3"},{"rt":2908,"stimulus":"stimuli/45.jpg","button_pressed":"1","name":"emotionType","trial_type":"image-button-response","trial_index":127,"time_elapsed":641671,"internal_node_id":"0.0-127.0","participant_id":"AR4UI9K92BUT3"},{"rt":null,"stimulus":"<p style=\"font-size: 48px;\">+</p>","key_press":null,"Name":"fixation","trial_type":"html-keyboard-response","trial_index":128,"time_elapsed":642179,"internal_node_id":"0.0-128.0","participant_id":"AR4UI9K92BUT3"},{"rt":null,"stimulus":"stimuli/18.jpg","button_pressed":null,"name":"noRating","trial_type":"image-button-response","trial_index":129,"time_elapsed":647181,"internal_node_id":"0.0-129.0","participant_id":"AR4UI9K92BUT3"},{"rt":4762,"stimulus":"stimuli/18.jpg","button_pressed":"0","name":"valence","trial_type":"image-button-response","trial_index":130,"time_elapsed":651945,"internal_node_id":"0.0-130.0","participant_id":"AR4UI9K92BUT3"},{"rt":6099,"response":"18","name":"rating","trial_type":"image-slider-response","trial_index":131,"time_elapsed":658048,"internal_node_id":"0.0-131.0","participant_id":"AR4UI9K92BUT3"},{"rt":2899,"stimulus":"stimuli/18.jpg","button_pressed":"0","name":"emotionType","trial_type":"image-button-response","trial_index":132,"time_elapsed":660952,"internal_node_id":"0.0-132.0","participant_id":"AR4UI9K92BUT3"},{"rt":null,"stimulus":"<p style=\"font-size: 48px;\">+</p>","key_press":null,"Name":"fixation","trial_type":"html-keyboard-response","trial_index":133,"time_elapsed":662458,"internal_node_id":"0.0-133.0","participant_id":"AR4UI9K92BUT3"},{"rt":null,"stimulus":"stimuli/55.jpg","button_pressed":null,"name":"noRating","trial_type":"image-button-response","trial_index":134,"time_elapsed":667468,"internal_node_id":"0.0-134.0","participant_id":"AR4UI9K92BUT3"},{"rt":1400,"stimulus":"stimuli/55.jpg","button_pressed":"0","name":"valence","trial_type":"image-button-response","trial_index":135,"time_elapsed":668870,"internal_node_id":"0.0-135.0","participant_id":"AR4UI9K92BUT3"},{"rt":7025,"response":"44","name":"rating","trial_type":"image-slider-response","trial_index":136,"time_elapsed":675900,"internal_node_id":"0.0-136.0","participant_id":"AR4UI9K92BUT3"},{"rt":1346,"stimulus":"stimuli/55.jpg","button_pressed":"0","name":"emotionType","trial_type":"image-button-response","trial_index":137,"time_elapsed":677250,"internal_node_id":"0.0-137.0","participant_id":"AR4UI9K92BUT3"},{"rt":5950,"responses":"{\"Q0\":\"we\"}","trial_type":"survey-text","trial_index":138,"time_elapsed":683203,"internal_node_id":"0.0-138.0-0.0","participant_id":"AR4UI9K92BUT3"},{"rt":null,"stimulus":"<p style=\"font-size: 48px;\">+</p>","key_press":null,"Name":"fixation","trial_type":"html-keyboard-response","trial_index":139,"time_elapsed":684709,"internal_node_id":"0.0-139.0","participant_id":"AR4UI9K92BUT3"},{"rt":null,"stimulus":"stimuli/16.jpg","button_pressed":null,"name":"noRating","trial_type":"image-button-response","trial_index":140,"time_elapsed":689712,"internal_node_id":"0.0-140.0","participant_id":"AR4UI9K92BUT3"},{"rt":1853,"stimulus":"stimuli/16.jpg","button_pressed":"0","name":"valence","trial_type":"image-button-response","trial_index":141,"time_elapsed":691567,"internal_node_id":"0.0-141.0","participant_id":"AR4UI9K92BUT3"},{"rt":6411,"response":"81","name":"rating","trial_type":"image-slider-response","trial_index":142,"time_elapsed":697982,"internal_node_id":"0.0-142.0","participant_id":"AR4UI9K92BUT3"},{"rt":2119,"stimulus":"stimuli/16.jpg","button_pressed":"0","name":"emotionType","trial_type":"image-button-response","trial_index":143,"time_elapsed":700104,"internal_node_id":"0.0-143.0","participant_id":"AR4UI9K92BUT3"},{"rt":null,"stimulus":"<p style=\"font-size: 48px;\">+</p>","key_press":null,"Name":"fixation","trial_type":"html-keyboard-response","trial_index":144,"time_elapsed":701113,"internal_node_id":"0.0-144.0","participant_id":"AR4UI9K92BUT3"},{"rt":null,"stimulus":"stimuli/35.jpg","button_pressed":null,"name":"noRating","trial_type":"image-button-response","trial_index":145,"time_elapsed":706120,"internal_node_id":"0.0-145.0","participant_id":"AR4UI9K92BUT3"},{"rt":1701,"stimulus":"stimuli/35.jpg","button_pressed":"0","name":"valence","trial_type":"image-button-response","trial_index":146,"time_elapsed":707824,"internal_node_id":"0.0-146.0","participant_id":"AR4UI9K92BUT3"},{"rt":5615,"response":"33","name":"rating","trial_type":"image-slider-response","trial_index":147,"time_elapsed":713442,"internal_node_id":"0.0-147.0","participant_id":"AR4UI9K92BUT3"},{"rt":1740,"stimulus":"stimuli/35.jpg","button_pressed":"0","name":"emotionType","trial_type":"image-button-response","trial_index":148,"time_elapsed":715186,"internal_node_id":"0.0-148.0","participant_id":"AR4UI9K92BUT3"},{"rt":null,"stimulus":"<p style=\"font-size: 48px;\">+</p>","key_press":null,"Name":"fixation","trial_type":"html-keyboard-response","trial_index":149,"time_elapsed":715689,"internal_node_id":"0.0-149.0","participant_id":"AR4UI9K92BUT3"},{"rt":null,"stimulus":"stimuli/66.jpg","button_pressed":null,"name":"noRating","trial_type":"image-button-response","trial_index":150,"time_elapsed":720692,"internal_node_id":"0.0-150.0","participant_id":"AR4UI9K92BUT3"},{"rt":2196,"stimulus":"stimuli/66.jpg","button_pressed":"0","name":"valence","trial_type":"image-button-response","trial_index":151,"time_elapsed":722892,"internal_node_id":"0.0-151.0","participant_id":"AR4UI9K92BUT3"},{"rt":7682,"response":"97","name":"rating","trial_type":"image-slider-response","trial_index":152,"time_elapsed":730577,"internal_node_id":"0.0-152.0","participant_id":"AR4UI9K92BUT3"},{"rt":1679,"stimulus":"stimuli/66.jpg","button_pressed":"0","name":"emotionType","trial_type":"image-button-response","trial_index":153,"time_elapsed":732260,"internal_node_id":"0.0-153.0","participant_id":"AR4UI9K92BUT3"},{"rt":null,"stimulus":"<p style=\"font-size: 48px;\">+</p>","key_press":null,"Name":"fixation","trial_type":"html-keyboard-response","trial_index":154,"time_elapsed":732765,"internal_node_id":"0.0-154.0","participant_id":"AR4UI9K92BUT3"},{"rt":null,"stimulus":"stimuli/6.jpg","button_pressed":null,"name":"noRating","trial_type":"image-button-response","trial_index":155,"time_elapsed":737767,"internal_node_id":"0.0-155.0","participant_id":"AR4UI9K92BUT3"},{"rt":2161,"stimulus":"stimuli/6.jpg","button_pressed":"0","name":"valence","trial_type":"image-button-response","trial_index":156,"time_elapsed":739930,"internal_node_id":"0.0-156.0","participant_id":"AR4UI9K92BUT3"},{"rt":7922,"response":"96","name":"rating","trial_type":"image-slider-response","trial_index":157,"time_elapsed":747855,"internal_node_id":"0.0-157.0","participant_id":"AR4UI9K92BUT3"},{"rt":1667,"stimulus":"stimuli/6.jpg","button_pressed":"0","name":"emotionType","trial_type":"image-button-response","trial_index":158,"time_elapsed":749527,"internal_node_id":"0.0-158.0","participant_id":"AR4UI9K92BUT3"},{"rt":null,"stimulus":"<p style=\"font-size: 48px;\">+</p>","key_press":null,"Name":"fixation","trial_type":"html-keyboard-response","trial_index":159,"time_elapsed":750030,"internal_node_id":"0.0-159.0","participant_id":"AR4UI9K92BUT3"},{"rt":null,"stimulus":"stimuli/17.jpg","button_pressed":null,"name":"noRating","trial_type":"image-button-response","trial_index":160,"time_elapsed":755032,"internal_node_id":"0.0-160.0","participant_id":"AR4UI9K92BUT3"},{"rt":2503,"stimulus":"stimuli/17.jpg","button_pressed":"0","name":"valence","trial_type":"image-button-response","trial_index":161,"time_elapsed":757537,"internal_node_id":"0.0-161.0","participant_id":"AR4UI9K92BUT3"},{"rt":5875,"response":"33","name":"rating","trial_type":"image-slider-response","trial_index":162,"time_elapsed":763417,"internal_node_id":"0.0-162.0","participant_id":"AR4UI9K92BUT3"},{"rt":1407,"stimulus":"stimuli/17.jpg","button_pressed":"0","name":"emotionType","trial_type":"image-button-response","trial_index":163,"time_elapsed":764827,"internal_node_id":"0.0-163.0","participant_id":"AR4UI9K92BUT3"},{"rt":4688,"stimulus":"stimuli/ins/Slide8.JPG","button_pressed":"0","trial_type":"image-button-response","trial_index":164,"time_elapsed":769520,"internal_node_id":"0.0-164.0","participant_id":"AR4UI9K92BUT3"}]