[{"rt":4480,"responses":"{\"Q0\":\"AR4XFM7G1W0VQ\"}","trial_type":"survey-text","trial_index":0,"time_elapsed":4483,"internal_node_id":"0.0-0.0-0.0","participant_id":"AR4XFM7G1W0VQ"},{"rt":2210,"stimulus":"stimuli/ins/Slide1.JPG","button_pressed":"0","Name":"instructions","trial_type":"image-button-response","trial_index":1,"time_elapsed":6695,"internal_node_id":"0.0-1.0","participant_id":"AR4XFM7G1W0VQ"},{"rt":1841,"stimulus":"stimuli/ins/Slide2.JPG","button_pressed":"0","Name":"instructions","trial_type":"image-button-response","trial_index":2,"time_elapsed":8538,"internal_node_id":"0.0-2.0","participant_id":"AR4XFM7G1W0VQ"},{"rt":4034,"stimulus":"stimuli/ins/Slide3.JPG","button_pressed":"0","Name":"instructions","trial_type":"image-button-response","trial_index":3,"time_elapsed":12573,"internal_node_id":"0.0-3.0","participant_id":"AR4XFM7G1W0VQ"},{"rt":6749,"stimulus":"stimuli/ins/Slide4.JPG","button_pressed":"0","Name":"instructions","trial_type":"image-button-response","trial_index":4,"time_elapsed":19324,"internal_node_id":"0.0-4.0","participant_id":"AR4XFM7G1W0VQ"},{"rt":4296,"stimulus":"stimuli/ins/Slide5.JPG","button_pressed":"0","Name":"instructions","trial_type":"image-button-response","trial_index":5,"time_elapsed":23621,"internal_node_id":"0.0-5.0","participant_id":"AR4XFM7G1W0VQ"},{"rt":2367,"stimulus":"stimuli/ins/Slide6.JPG","button_pressed":"0","Name":"instructions","trial_type":"image-button-response","trial_index":6,"time_elapsed":25990,"internal_node_id":"0.0-6.0","participant_id":"AR4XFM7G1W0VQ"},{"rt":1440,"stimulus":"stimuli/ins/Slide7.JPG","button_pressed":"0","Name":"instructions","trial_type":"image-button-response","trial_index":7,"time_elapsed":27430,"internal_node_id":"0.0-7.0","participant_id":"AR4XFM7G1W0VQ"},{"rt":5379,"responses":"{\"Q0\":\"but\"}","trial_type":"survey-text","trial_index":8,"time_elapsed":32810,"internal_node_id":"0.0-8.0-0.0","participant_id":"AR4XFM7G1W0VQ"},{"rt":null,"stimulus":"<p style=\"font-size: 48px;\">+</p>","key_press":null,"Name":"fixation","trial_type":"html-keyboard-response","trial_index":9,"time_elapsed":33314,"internal_node_id":"0.0-9.0","participant_id":"AR4XFM7G1W0VQ"},{"rt":null,"stimulus":"stimuli/61.jpg","button_pressed":null,"name":"noRating","trial_type":"image-button-response","trial_index":10,"time_elapsed":38320,"internal_node_id":"0.0-10.0","participant_id":"AR4XFM7G1W0VQ"},{"rt":1728,"stimulus":"stimuli/61.jpg","button_pressed":"0","name":"valence","trial_type":"image-button-response","trial_index":11,"time_elapsed":40049,"internal_node_id":"0.0-11.0","participant_id":"AR4XFM7G1W0VQ"},{"rt":3097,"response":"91","name":"rating","trial_type":"image-slider-response","trial_index":12,"time_elapsed":43149,"internal_node_id":"0.0-12.0","participant_id":"AR4XFM7G1W0VQ"},{"rt":4689,"stimulus":"stimuli/61.jpg","button_pressed":"0","name":"emotionType","trial_type":"image-button-response","trial_index":13,"time_elapsed":47839,"internal_node_id":"0.0-13.0","participant_id":"AR4XFM7G1W0VQ"},{"rt":null,"stimulus":"<p style=\"font-size: 48px;\">+</p>","key_press":null,"Name":"fixation","trial_type":"html-keyboard-response","trial_index":14,"time_elapsed":48342,"internal_node_id":"0.0-14.0","participant_id":"AR4XFM7G1W0VQ"},{"rt":null,"stimulus":"stimuli/47.jpg","button_pressed":null,"name":"noRating","trial_type":"image-button-response","trial_index":15,"time_elapsed":53344,"internal_node_id":"0.0-15.0","participant_id":"AR4XFM7G1W0VQ"},{"rt":1233,"stimulus":"stimuli/47.jpg","button_pressed":"0","name":"valence","trial_type":"image-button-response","trial_index":16,"time_elapsed":54578,"internal_node_id":"0.0-16.0","participant_id":"AR4XFM7G1W0VQ"},{"rt":2555,"response":"95","name":"rating","trial_type":"image-slider-response","trial_index":17,"time_elapsed":57135,"internal_node_id":"0.0-17.0","participant_id":"AR4XFM7G1W0VQ"},{"rt":3590,"stimulus":"stimuli/47.jpg","button_pressed":"0","name":"emotionType","trial_type":"image-button-response","trial_index":18,"time_elapsed":60727,"internal_node_id":"0.0-18.0","participant_id":"AR4XFM7G1W0VQ"},{"rt":null,"stimulus":"<p style=\"font-size: 48px;\">+</p>","key_press":null,"Name":"fixation","trial_type":"html-keyboard-response","trial_index":19,"time_elapsed":61229,"internal_node_id":"0.0-19.0","participant_id":"AR4XFM7G1W0VQ"},{"rt":null,"stimulus":"stimuli/49.jpg","button_pressed":null,"name":"noRating","trial_type":"image-button-response","trial_index":20,"time_elapsed":66232,"internal_node_id":"0.0-20.0","participant_id":"AR4XFM7G1W0VQ"},{"rt":1135,"stimulus":"stimuli/49.jpg","button_pressed":"0","name":"valence","trial_type":"image-button-response","trial_index":21,"time_elapsed":67368,"internal_node_id":"0.0-21.0","participant_id":"AR4XFM7G1W0VQ"},{"rt":2676,"response":"79","name":"rating","trial_type":"image-slider-response","trial_index":22,"time_elapsed":70045,"internal_node_id":"0.0-22.0","participant_id":"AR4XFM7G1W0VQ"},{"rt":3293,"stimulus":"stimuli/49.jpg","button_pressed":"1","name":"emotionType","trial_type":"image-button-response","trial_index":23,"time_elapsed":73340,"internal_node_id":"0.0-23.0","participant_id":"AR4XFM7G1W0VQ"},{"rt":null,"stimulus":"<p style=\"font-size: 48px;\">+</p>","key_press":null,"Name":"fixation","trial_type":"html-keyboard-response","trial_index":24,"time_elapsed":74340,"internal_node_id":"0.0-24.0","participant_id":"AR4XFM7G1W0VQ"},{"rt":null,"stimulus":"stimuli/21.jpg","button_pressed":null,"name":"noRating","trial_type":"image-button-response","trial_index":25,"time_elapsed":80135,"internal_node_id":"0.0-25.0","participant_id":"AR4XFM7G1W0VQ"},{"rt":16651,"stimulus":"stimuli/21.jpg","button_pressed":"0","name":"valence","trial_type":"image-button-response","trial_index":26,"time_elapsed":96788,"internal_node_id":"0.0-26.0","participant_id":"AR4XFM7G1W0VQ"},{"rt":5007,"response":"92","name":"rating","trial_type":"image-slider-response","trial_index":27,"time_elapsed":101795,"internal_node_id":"0.0-27.0","participant_id":"AR4XFM7G1W0VQ"},{"rt":1988,"stimulus":"stimuli/21.jpg","button_pressed":"1","name":"emotionType","trial_type":"image-button-response","trial_index":28,"time_elapsed":103785,"internal_node_id":"0.0-28.0","participant_id":"AR4XFM7G1W0VQ"},{"rt":null,"stimulus":"<p style=\"font-size: 48px;\">+</p>","key_press":null,"Name":"fixation","trial_type":"html-keyboard-response","trial_index":29,"time_elapsed":104789,"internal_node_id":"0.0-29.0","participant_id":"AR4XFM7G1W0VQ"},{"rt":null,"stimulus":"stimuli/69.jpg","button_pressed":null,"name":"noRating","trial_type":"image-button-response","trial_index":30,"time_elapsed":109793,"internal_node_id":"0.0-30.0","participant_id":"AR4XFM7G1W0VQ"},{"rt":1908,"stimulus":"stimuli/69.jpg","button_pressed":"0","name":"valence","trial_type":"image-button-response","trial_index":31,"time_elapsed":111702,"internal_node_id":"0.0-31.0","participant_id":"AR4XFM7G1W0VQ"},{"rt":3101,"response":"78","name":"rating","trial_type":"image-slider-response","trial_index":32,"time_elapsed":114805,"internal_node_id":"0.0-32.0","participant_id":"AR4XFM7G1W0VQ"},{"rt":2604,"stimulus":"stimuli/69.jpg","button_pressed":"0","name":"emotionType","trial_type":"image-button-response","trial_index":33,"time_elapsed":117410,"internal_node_id":"0.0-33.0","participant_id":"AR4XFM7G1W0VQ"},{"rt":4908,"responses":"{\"Q0\":\"rock\"}","trial_type":"survey-text","trial_index":34,"time_elapsed":122318,"internal_node_id":"0.0-34.0-0.0","participant_id":"AR4XFM7G1W0VQ"},{"rt":null,"stimulus":"<p style=\"font-size: 48px;\">+</p>","key_press":null,"Name":"fixation","trial_type":"html-keyboard-response","trial_index":35,"time_elapsed":123321,"internal_node_id":"0.0-35.0","participant_id":"AR4XFM7G1W0VQ"},{"rt":null,"stimulus":"stimuli/51.jpg","button_pressed":null,"name":"noRating","trial_type":"image-button-response","trial_index":36,"time_elapsed":128326,"internal_node_id":"0.0-36.0","participant_id":"AR4XFM7G1W0VQ"},{"rt":1414,"stimulus":"stimuli/51.jpg","button_pressed":"0","name":"valence","trial_type":"image-button-response","trial_index":37,"time_elapsed":129741,"internal_node_id":"0.0-37.0","participant_id":"AR4XFM7G1W0VQ"},{"rt":2320,"response":"96","name":"rating","trial_type":"image-slider-response","trial_index":38,"time_elapsed":132063,"internal_node_id":"0.0-38.0","participant_id":"AR4XFM7G1W0VQ"},{"rt":914,"stimulus":"stimuli/51.jpg","button_pressed":"1","name":"emotionType","trial_type":"image-button-response","trial_index":39,"time_elapsed":132977,"internal_node_id":"0.0-39.0","participant_id":"AR4XFM7G1W0VQ"},{"rt":null,"stimulus":"<p style=\"font-size: 48px;\">+</p>","key_press":null,"Name":"fixation","trial_type":"html-keyboard-response","trial_index":40,"time_elapsed":134480,"internal_node_id":"0.0-40.0","participant_id":"AR4XFM7G1W0VQ"},{"rt":null,"stimulus":"stimuli/38.jpg","button_pressed":null,"name":"noRating","trial_type":"image-button-response","trial_index":41,"time_elapsed":139486,"internal_node_id":"0.0-41.0","participant_id":"AR4XFM7G1W0VQ"},{"rt":1369,"stimulus":"stimuli/38.jpg","button_pressed":"0","name":"valence","trial_type":"image-button-response","trial_index":42,"time_elapsed":140856,"internal_node_id":"0.0-42.0","participant_id":"AR4XFM7G1W0VQ"},{"rt":2540,"response":"76","name":"rating","trial_type":"image-slider-response","trial_index":43,"time_elapsed":143397,"internal_node_id":"0.0-43.0","participant_id":"AR4XFM7G1W0VQ"},{"rt":799,"stimulus":"stimuli/38.jpg","button_pressed":"0","name":"emotionType","trial_type":"image-button-response","trial_index":44,"time_elapsed":144197,"internal_node_id":"0.0-44.0","participant_id":"AR4XFM7G1W0VQ"},{"rt":null,"stimulus":"<p style=\"font-size: 48px;\">+</p>","key_press":null,"Name":"fixation","trial_type":"html-keyboard-response","trial_index":45,"time_elapsed":145202,"internal_node_id":"0.0-45.0","participant_id":"AR4XFM7G1W0VQ"},{"rt":null,"stimulus":"stimuli/62.jpg","button_pressed":null,"name":"noRating","trial_type":"image-button-response","trial_index":46,"time_elapsed":150208,"internal_node_id":"0.0-46.0","participant_id":"AR4XFM7G1W0VQ"},{"rt":2169,"stimulus":"stimuli/62.jpg","button_pressed":"0","name":"valence","trial_type":"image-button-response","trial_index":47,"time_elapsed":152378,"internal_node_id":"0.0-47.0","participant_id":"AR4XFM7G1W0VQ"},{"rt":3945,"response":"80","name":"rating","trial_type":"image-slider-response","trial_index":48,"time_elapsed":156324,"internal_node_id":"0.0-48.0","participant_id":"AR4XFM7G1W0VQ"},{"rt":870,"stimulus":"stimuli/62.jpg","button_pressed":"0","name":"emotionType","trial_type":"image-button-response","trial_index":49,"time_elapsed":157195,"internal_node_id":"0.0-49.0","participant_id":"AR4XFM7G1W0VQ"},{"rt":null,"stimulus":"<p style=\"font-size: 48px;\">+</p>","key_press":null,"Name":"fixation","trial_type":"html-keyboard-response","trial_index":50,"time_elapsed":158700,"internal_node_id":"0.0-50.0","participant_id":"AR4XFM7G1W0VQ"},{"rt":null,"stimulus":"stimuli/33.jpg","button_pressed":null,"name":"noRating","trial_type":"image-button-response","trial_index":51,"time_elapsed":163706,"internal_node_id":"0.0-51.0","participant_id":"AR4XFM7G1W0VQ"},{"rt":3485,"stimulus":"stimuli/33.jpg","button_pressed":"0","name":"valence","trial_type":"image-button-response","trial_index":52,"time_elapsed":167192,"internal_node_id":"0.0-52.0","participant_id":"AR4XFM7G1W0VQ"},{"rt":4480,"response":"78","name":"rating","trial_type":"image-slider-response","trial_index":53,"time_elapsed":171674,"internal_node_id":"0.0-53.0","participant_id":"AR4XFM7G1W0VQ"},{"rt":1011,"stimulus":"stimuli/33.jpg","button_pressed":"0","name":"emotionType","trial_type":"image-button-response","trial_index":54,"time_elapsed":172685,"internal_node_id":"0.0-54.0","participant_id":"AR4XFM7G1W0VQ"},{"rt":null,"stimulus":"<p style=\"font-size: 48px;\">+</p>","key_press":null,"Name":"fixation","trial_type":"html-keyboard-response","trial_index":55,"time_elapsed":173189,"internal_node_id":"0.0-55.0","participant_id":"AR4XFM7G1W0VQ"},{"rt":null,"stimulus":"stimuli/25.jpg","button_pressed":null,"name":"noRating","trial_type":"image-button-response","trial_index":56,"time_elapsed":178192,"internal_node_id":"0.0-56.0","participant_id":"AR4XFM7G1W0VQ"},{"rt":1391,"stimulus":"stimuli/25.jpg","button_pressed":"0","name":"valence","trial_type":"image-button-response","trial_index":57,"time_elapsed":179585,"internal_node_id":"0.0-57.0","participant_id":"AR4XFM7G1W0VQ"},{"rt":2004,"response":"80","name":"rating","trial_type":"image-slider-response","trial_index":58,"time_elapsed":181590,"internal_node_id":"0.0-58.0","participant_id":"AR4XFM7G1W0VQ"},{"rt":760,"stimulus":"stimuli/25.jpg","button_pressed":"0","name":"emotionType","trial_type":"image-button-response","trial_index":59,"time_elapsed":182351,"internal_node_id":"0.0-59.0","participant_id":"AR4XFM7G1W0VQ"},{"rt":5731,"responses":"{\"Q0\":\"sky\"}","trial_type":"survey-text","trial_index":60,"time_elapsed":188084,"internal_node_id":"0.0-60.0-0.0","participant_id":"AR4XFM7G1W0VQ"},{"rt":null,"stimulus":"<p style=\"font-size: 48px;\">+</p>","key_press":null,"Name":"fixation","trial_type":"html-keyboard-response","trial_index":61,"time_elapsed":189585,"internal_node_id":"0.0-61.0","participant_id":"AR4XFM7G1W0VQ"},{"rt":null,"stimulus":"stimuli/70.jpg","button_pressed":null,"name":"noRating","trial_type":"image-button-response","trial_index":62,"time_elapsed":194588,"internal_node_id":"0.0-62.0","participant_id":"AR4XFM7G1W0VQ"},{"rt":1160,"stimulus":"stimuli/70.jpg","button_pressed":"0","name":"valence","trial_type":"image-button-response","trial_index":63,"time_elapsed":195750,"internal_node_id":"0.0-63.0","participant_id":"AR4XFM7G1W0VQ"},{"rt":2821,"response":"95","name":"rating","trial_type":"image-slider-response","trial_index":64,"time_elapsed":198573,"internal_node_id":"0.0-64.0","participant_id":"AR4XFM7G1W0VQ"},{"rt":822,"stimulus":"stimuli/70.jpg","button_pressed":"1","name":"emotionType","trial_type":"image-button-response","trial_index":65,"time_elapsed":199397,"internal_node_id":"0.0-65.0","participant_id":"AR4XFM7G1W0VQ"},{"rt":null,"stimulus":"<p style=\"font-size: 48px;\">+</p>","key_press":null,"Name":"fixation","trial_type":"html-keyboard-response","trial_index":66,"time_elapsed":200398,"internal_node_id":"0.0-66.0","participant_id":"AR4XFM7G1W0VQ"},{"rt":null,"stimulus":"stimuli/54.jpg","button_pressed":null,"name":"noRating","trial_type":"image-button-response","trial_index":67,"time_elapsed":205404,"internal_node_id":"0.0-67.0","participant_id":"AR4XFM7G1W0VQ"},{"rt":1842,"stimulus":"stimuli/54.jpg","button_pressed":"0","name":"valence","trial_type":"image-button-response","trial_index":68,"time_elapsed":207248,"internal_node_id":"0.0-68.0","participant_id":"AR4XFM7G1W0VQ"},{"rt":3068,"response":"80","name":"rating","trial_type":"image-slider-response","trial_index":69,"time_elapsed":210317,"internal_node_id":"0.0-69.0","participant_id":"AR4XFM7G1W0VQ"},{"rt":1148,"stimulus":"stimuli/54.jpg","button_pressed":"0","name":"emotionType","trial_type":"image-button-response","trial_index":70,"time_elapsed":211466,"internal_node_id":"0.0-70.0","participant_id":"AR4XFM7G1W0VQ"},{"rt":null,"stimulus":"<p style=\"font-size: 48px;\">+</p>","key_press":null,"Name":"fixation","trial_type":"html-keyboard-response","trial_index":71,"time_elapsed":212970,"internal_node_id":"0.0-71.0","participant_id":"AR4XFM7G1W0VQ"},{"rt":null,"stimulus":"stimuli/39.jpg","button_pressed":null,"name":"noRating","trial_type":"image-button-response","trial_index":72,"time_elapsed":217972,"internal_node_id":"0.0-72.0","participant_id":"AR4XFM7G1W0VQ"},{"rt":1325,"stimulus":"stimuli/39.jpg","button_pressed":"0","name":"valence","trial_type":"image-button-response","trial_index":73,"time_elapsed":219298,"internal_node_id":"0.0-73.0","participant_id":"AR4XFM7G1W0VQ"},{"rt":2038,"response":"74","name":"rating","trial_type":"image-slider-response","trial_index":74,"time_elapsed":221338,"internal_node_id":"0.0-74.0","participant_id":"AR4XFM7G1W0VQ"},{"rt":873,"stimulus":"stimuli/39.jpg","button_pressed":"0","name":"emotionType","trial_type":"image-button-response","trial_index":75,"time_elapsed":222211,"internal_node_id":"0.0-75.0","participant_id":"AR4XFM7G1W0VQ"},{"rt":null,"stimulus":"<p style=\"font-size: 48px;\">+</p>","key_press":null,"Name":"fixation","trial_type":"html-keyboard-response","trial_index":76,"time_elapsed":223712,"internal_node_id":"0.0-76.0","participant_id":"AR4XFM7G1W0VQ"},{"rt":null,"stimulus":"stimuli/16.jpg","button_pressed":null,"name":"noRating","trial_type":"image-button-response","trial_index":77,"time_elapsed":228714,"internal_node_id":"0.0-77.0","participant_id":"AR4XFM7G1W0VQ"},{"rt":2040,"stimulus":"stimuli/16.jpg","button_pressed":"0","name":"valence","trial_type":"image-button-response","trial_index":78,"time_elapsed":230756,"internal_node_id":"0.0-78.0","participant_id":"AR4XFM7G1W0VQ"},{"rt":2740,"response":"85","name":"rating","trial_type":"image-slider-response","trial_index":79,"time_elapsed":233497,"internal_node_id":"0.0-79.0","participant_id":"AR4XFM7G1W0VQ"},{"rt":1455,"stimulus":"stimuli/16.jpg","button_pressed":"0","name":"emotionType","trial_type":"image-button-response","trial_index":80,"time_elapsed":234954,"internal_node_id":"0.0-80.0","participant_id":"AR4XFM7G1W0VQ"},{"rt":null,"stimulus":"<p style=\"font-size: 48px;\">+</p>","key_press":null,"Name":"fixation","trial_type":"html-keyboard-response","trial_index":81,"time_elapsed":235458,"internal_node_id":"0.0-81.0","participant_id":"AR4XFM7G1W0VQ"},{"rt":null,"stimulus":"stimuli/68.jpg","button_pressed":null,"name":"noRating","trial_type":"image-button-response","trial_index":82,"time_elapsed":240464,"internal_node_id":"0.0-82.0","participant_id":"AR4XFM7G1W0VQ"},{"rt":1545,"stimulus":"stimuli/68.jpg","button_pressed":"0","name":"valence","trial_type":"image-button-response","trial_index":83,"time_elapsed":242009,"internal_node_id":"0.0-83.0","participant_id":"AR4XFM7G1W0VQ"},{"rt":3116,"response":"66","name":"rating","trial_type":"image-slider-response","trial_index":84,"time_elapsed":245127,"internal_node_id":"0.0-84.0","participant_id":"AR4XFM7G1W0VQ"},{"rt":2036,"stimulus":"stimuli/68.jpg","button_pressed":"0","name":"emotionType","trial_type":"image-button-response","trial_index":85,"time_elapsed":247165,"internal_node_id":"0.0-85.0","participant_id":"AR4XFM7G1W0VQ"},{"rt":4074,"responses":"{\"Q0\":\"our\"}","trial_type":"survey-text","trial_index":86,"time_elapsed":251240,"internal_node_id":"0.0-86.0-0.0","participant_id":"AR4XFM7G1W0VQ"},{"rt":null,"stimulus":"<p style=\"font-size: 48px;\">+</p>","key_press":null,"Name":"fixation","trial_type":"html-keyboard-response","trial_index":87,"time_elapsed":252745,"internal_node_id":"0.0-87.0","participant_id":"AR4XFM7G1W0VQ"},{"rt":null,"stimulus":"stimuli/64.jpg","button_pressed":null,"name":"noRating","trial_type":"image-button-response","trial_index":88,"time_elapsed":257748,"internal_node_id":"0.0-88.0","participant_id":"AR4XFM7G1W0VQ"},{"rt":1339,"stimulus":"stimuli/64.jpg","button_pressed":"0","name":"valence","trial_type":"image-button-response","trial_index":89,"time_elapsed":259088,"internal_node_id":"0.0-89.0","participant_id":"AR4XFM7G1W0VQ"},{"rt":2058,"response":"75","name":"rating","trial_type":"image-slider-response","trial_index":90,"time_elapsed":261147,"internal_node_id":"0.0-90.0","participant_id":"AR4XFM7G1W0VQ"},{"rt":1067,"stimulus":"stimuli/64.jpg","button_pressed":"1","name":"emotionType","trial_type":"image-button-response","trial_index":91,"time_elapsed":262216,"internal_node_id":"0.0-91.0","participant_id":"AR4XFM7G1W0VQ"},{"rt":null,"stimulus":"<p style=\"font-size: 48px;\">+</p>","key_press":null,"Name":"fixation","trial_type":"html-keyboard-response","trial_index":92,"time_elapsed":263718,"internal_node_id":"0.0-92.0","participant_id":"AR4XFM7G1W0VQ"},{"rt":null,"stimulus":"stimuli/13.jpg","button_pressed":null,"name":"noRating","trial_type":"image-button-response","trial_index":93,"time_elapsed":268720,"internal_node_id":"0.0-93.0","participant_id":"AR4XFM7G1W0VQ"},{"rt":1710,"stimulus":"stimuli/13.jpg","button_pressed":"0","name":"valence","trial_type":"image-button-response","trial_index":94,"time_elapsed":270430,"internal_node_id":"0.0-94.0","participant_id":"AR4XFM7G1W0VQ"},{"rt":2668,"response":"74","name":"rating","trial_type":"image-slider-response","trial_index":95,"time_elapsed":273099,"internal_node_id":"0.0-95.0","participant_id":"AR4XFM7G1W0VQ"},{"rt":961,"stimulus":"stimuli/13.jpg","button_pressed":"0","name":"emotionType","trial_type":"image-button-response","trial_index":96,"time_elapsed":274061,"internal_node_id":"0.0-96.0","participant_id":"AR4XFM7G1W0VQ"},{"rt":null,"stimulus":"<p style=\"font-size: 48px;\">+</p>","key_press":null,"Name":"fixation","trial_type":"html-keyboard-response","trial_index":97,"time_elapsed":274563,"internal_node_id":"0.0-97.0","participant_id":"AR4XFM7G1W0VQ"},{"rt":null,"stimulus":"stimuli/31.jpg","button_pressed":null,"name":"noRating","trial_type":"image-button-response","trial_index":98,"time_elapsed":279566,"internal_node_id":"0.0-98.0","participant_id":"AR4XFM7G1W0VQ"},{"rt":1238,"stimulus":"stimuli/31.jpg","button_pressed":"0","name":"valence","trial_type":"image-button-response","trial_index":99,"time_elapsed":280805,"internal_node_id":"0.0-99.0","participant_id":"AR4XFM7G1W0VQ"},{"rt":2627,"response":"87","name":"rating","trial_type":"image-slider-response","trial_index":100,"time_elapsed":283433,"internal_node_id":"0.0-100.0","participant_id":"AR4XFM7G1W0VQ"},{"rt":977,"stimulus":"stimuli/31.jpg","button_pressed":"0","name":"emotionType","trial_type":"image-button-response","trial_index":101,"time_elapsed":284411,"internal_node_id":"0.0-101.0","participant_id":"AR4XFM7G1W0VQ"},{"rt":null,"stimulus":"<p style=\"font-size: 48px;\">+</p>","key_press":null,"Name":"fixation","trial_type":"html-keyboard-response","trial_index":102,"time_elapsed":285412,"internal_node_id":"0.0-102.0","participant_id":"AR4XFM7G1W0VQ"},{"rt":null,"stimulus":"stimuli/46.jpg","button_pressed":null,"name":"noRating","trial_type":"image-button-response","trial_index":103,"time_elapsed":290418,"internal_node_id":"0.0-103.0","participant_id":"AR4XFM7G1W0VQ"},{"rt":1088,"stimulus":"stimuli/46.jpg","button_pressed":"0","name":"valence","trial_type":"image-button-response","trial_index":104,"time_elapsed":291507,"internal_node_id":"0.0-104.0","participant_id":"AR4XFM7G1W0VQ"},{"rt":3141,"response":"76","name":"rating","trial_type":"image-slider-response","trial_index":105,"time_elapsed":294650,"internal_node_id":"0.0-105.0","participant_id":"AR4XFM7G1W0VQ"},{"rt":766,"stimulus":"stimuli/46.jpg","button_pressed":"0","name":"emotionType","trial_type":"image-button-response","trial_index":106,"time_elapsed":295418,"internal_node_id":"0.0-106.0","participant_id":"AR4XFM7G1W0VQ"},{"rt":null,"stimulus":"<p style=\"font-size: 48px;\">+</p>","key_press":null,"Name":"fixation","trial_type":"html-keyboard-response","trial_index":107,"time_elapsed":296923,"internal_node_id":"0.0-107.0","participant_id":"AR4XFM7G1W0VQ"},{"rt":null,"stimulus":"stimuli/45.jpg","button_pressed":null,"name":"noRating","trial_type":"image-button-response","trial_index":108,"time_elapsed":301927,"internal_node_id":"0.0-108.0","participant_id":"AR4XFM7G1W0VQ"},{"rt":1305,"stimulus":"stimuli/45.jpg","button_pressed":"0","name":"valence","trial_type":"image-button-response","trial_index":109,"time_elapsed":303233,"internal_node_id":"0.0-109.0","participant_id":"AR4XFM7G1W0VQ"},{"rt":3207,"response":"83","name":"rating","trial_type":"image-slider-response","trial_index":110,"time_elapsed":306441,"internal_node_id":"0.0-110.0","participant_id":"AR4XFM7G1W0VQ"},{"rt":944,"stimulus":"stimuli/45.jpg","button_pressed":"0","name":"emotionType","trial_type":"image-button-response","trial_index":111,"time_elapsed":307387,"internal_node_id":"0.0-111.0","participant_id":"AR4XFM7G1W0VQ"},{"rt":4853,"responses":"{\"Q0\":\"course\"}","trial_type":"survey-text","trial_index":112,"time_elapsed":312241,"internal_node_id":"0.0-112.0-0.0","participant_id":"AR4XFM7G1W0VQ"},{"rt":null,"stimulus":"<p style=\"font-size: 48px;\">+</p>","key_press":null,"Name":"fixation","trial_type":"html-keyboard-response","trial_index":113,"time_elapsed":313746,"internal_node_id":"0.0-113.0","participant_id":"AR4XFM7G1W0VQ"},{"rt":null,"stimulus":"stimuli/24.jpg","button_pressed":null,"name":"noRating","trial_type":"image-button-response","trial_index":114,"time_elapsed":318748,"internal_node_id":"0.0-114.0","participant_id":"AR4XFM7G1W0VQ"},{"rt":1297,"stimulus":"stimuli/24.jpg","button_pressed":"0","name":"valence","trial_type":"image-button-response","trial_index":115,"time_elapsed":320046,"internal_node_id":"0.0-115.0","participant_id":"AR4XFM7G1W0VQ"},{"rt":2936,"response":"80","name":"rating","trial_type":"image-slider-response","trial_index":116,"time_elapsed":322983,"internal_node_id":"0.0-116.0","participant_id":"AR4XFM7G1W0VQ"},{"rt":2733,"stimulus":"stimuli/24.jpg","button_pressed":"1","name":"emotionType","trial_type":"image-button-response","trial_index":117,"time_elapsed":325718,"internal_node_id":"0.0-117.0","participant_id":"AR4XFM7G1W0VQ"},{"rt":null,"stimulus":"<p style=\"font-size: 48px;\">+</p>","key_press":null,"Name":"fixation","trial_type":"html-keyboard-response","trial_index":118,"time_elapsed":327219,"internal_node_id":"0.0-118.0","participant_id":"AR4XFM7G1W0VQ"},{"rt":null,"stimulus":"stimuli/11.jpg","button_pressed":null,"name":"noRating","trial_type":"image-button-response","trial_index":119,"time_elapsed":332224,"internal_node_id":"0.0-119.0","participant_id":"AR4XFM7G1W0VQ"},{"rt":965,"stimulus":"stimuli/11.jpg","button_pressed":"0","name":"valence","trial_type":"image-button-response","trial_index":120,"time_elapsed":333190,"internal_node_id":"0.0-120.0","participant_id":"AR4XFM7G1W0VQ"},{"rt":2543,"response":"74","name":"rating","trial_type":"image-slider-response","trial_index":121,"time_elapsed":335734,"internal_node_id":"0.0-121.0","participant_id":"AR4XFM7G1W0VQ"},{"rt":1236,"stimulus":"stimuli/11.jpg","button_pressed":"0","name":"emotionType","trial_type":"image-button-response","trial_index":122,"time_elapsed":336972,"internal_node_id":"0.0-122.0","participant_id":"AR4XFM7G1W0VQ"},{"rt":null,"stimulus":"<p style=\"font-size: 48px;\">+</p>","key_press":null,"Name":"fixation","trial_type":"html-keyboard-response","trial_index":123,"time_elapsed":337473,"internal_node_id":"0.0-123.0","participant_id":"AR4XFM7G1W0VQ"},{"rt":null,"stimulus":"stimuli/6.jpg","button_pressed":null,"name":"noRating","trial_type":"image-button-response","trial_index":124,"time_elapsed":342474,"internal_node_id":"0.0-124.0","participant_id":"AR4XFM7G1W0VQ"},{"rt":1114,"stimulus":"stimuli/6.jpg","button_pressed":"0","name":"valence","trial_type":"image-button-response","trial_index":125,"time_elapsed":343588,"internal_node_id":"0.0-125.0","participant_id":"AR4XFM7G1W0VQ"},{"rt":2369,"response":"74","name":"rating","trial_type":"image-slider-response","trial_index":126,"time_elapsed":345959,"internal_node_id":"0.0-126.0","participant_id":"AR4XFM7G1W0VQ"},{"rt":823,"stimulus":"stimuli/6.jpg","button_pressed":"0","name":"emotionType","trial_type":"image-button-response","trial_index":127,"time_elapsed":346784,"internal_node_id":"0.0-127.0","participant_id":"AR4XFM7G1W0VQ"},{"rt":null,"stimulus":"<p style=\"font-size: 48px;\">+</p>","key_press":null,"Name":"fixation","trial_type":"html-keyboard-response","trial_index":128,"time_elapsed":347785,"internal_node_id":"0.0-128.0","participant_id":"AR4XFM7G1W0VQ"},{"rt":null,"stimulus":"stimuli/42.jpg","button_pressed":null,"name":"noRating","trial_type":"image-button-response","trial_index":129,"time_elapsed":352789,"internal_node_id":"0.0-129.0","participant_id":"AR4XFM7G1W0VQ"},{"rt":1408,"stimulus":"stimuli/42.jpg","button_pressed":"0","name":"valence","trial_type":"image-button-response","trial_index":130,"time_elapsed":354199,"internal_node_id":"0.0-130.0","participant_id":"AR4XFM7G1W0VQ"},{"rt":2773,"response":"78","name":"rating","trial_type":"image-slider-response","trial_index":131,"time_elapsed":356974,"internal_node_id":"0.0-131.0","participant_id":"AR4XFM7G1W0VQ"},{"rt":750,"stimulus":"stimuli/42.jpg","button_pressed":"0","name":"emotionType","trial_type":"image-button-response","trial_index":132,"time_elapsed":357725,"internal_node_id":"0.0-132.0","participant_id":"AR4XFM7G1W0VQ"},{"rt":null,"stimulus":"<p style=\"font-size: 48px;\">+</p>","key_press":null,"Name":"fixation","trial_type":"html-keyboard-response","trial_index":133,"time_elapsed":358230,"internal_node_id":"0.0-133.0","participant_id":"AR4XFM7G1W0VQ"},{"rt":null,"stimulus":"stimuli/40.jpg","button_pressed":null,"name":"noRating","trial_type":"image-button-response","trial_index":134,"time_elapsed":363236,"internal_node_id":"0.0-134.0","participant_id":"AR4XFM7G1W0VQ"},{"rt":1175,"stimulus":"stimuli/40.jpg","button_pressed":"0","name":"valence","trial_type":"image-button-response","trial_index":135,"time_elapsed":364411,"internal_node_id":"0.0-135.0","participant_id":"AR4XFM7G1W0VQ"},{"rt":2508,"response":"67","name":"rating","trial_type":"image-slider-response","trial_index":136,"time_elapsed":366920,"internal_node_id":"0.0-136.0","participant_id":"AR4XFM7G1W0VQ"},{"rt":800,"stimulus":"stimuli/40.jpg","button_pressed":"0","name":"emotionType","trial_type":"image-button-response","trial_index":137,"time_elapsed":367721,"internal_node_id":"0.0-137.0","participant_id":"AR4XFM7G1W0VQ"},{"rt":4217,"responses":"{\"Q0\":\"we\"}","trial_type":"survey-text","trial_index":138,"time_elapsed":371939,"internal_node_id":"0.0-138.0-0.0","participant_id":"AR4XFM7G1W0VQ"},{"rt":null,"stimulus":"<p style=\"font-size: 48px;\">+</p>","key_press":null,"Name":"fixation","trial_type":"html-keyboard-response","trial_index":139,"time_elapsed":372442,"internal_node_id":"0.0-139.0","participant_id":"AR4XFM7G1W0VQ"},{"rt":null,"stimulus":"stimuli/60.jpg","button_pressed":null,"name":"noRating","trial_type":"image-button-response","trial_index":140,"time_elapsed":377443,"internal_node_id":"0.0-140.0","participant_id":"AR4XFM7G1W0VQ"},{"rt":1507,"stimulus":"stimuli/60.jpg","button_pressed":"0","name":"valence","trial_type":"image-button-response","trial_index":141,"time_elapsed":378951,"internal_node_id":"0.0-141.0","participant_id":"AR4XFM7G1W0VQ"},{"rt":2296,"response":"81","name":"rating","trial_type":"image-slider-response","trial_index":142,"time_elapsed":381248,"internal_node_id":"0.0-142.0","participant_id":"AR4XFM7G1W0VQ"},{"rt":953,"stimulus":"stimuli/60.jpg","button_pressed":"0","name":"emotionType","trial_type":"image-button-response","trial_index":143,"time_elapsed":382202,"internal_node_id":"0.0-143.0","participant_id":"AR4XFM7G1W0VQ"},{"rt":null,"stimulus":"<p style=\"font-size: 48px;\">+</p>","key_press":null,"Name":"fixation","trial_type":"html-keyboard-response","trial_index":144,"time_elapsed":383208,"internal_node_id":"0.0-144.0","participant_id":"AR4XFM7G1W0VQ"},{"rt":null,"stimulus":"stimuli/22.jpg","button_pressed":null,"name":"noRating","trial_type":"image-button-response","trial_index":145,"time_elapsed":388210,"internal_node_id":"0.0-145.0","participant_id":"AR4XFM7G1W0VQ"},{"rt":1564,"stimulus":"stimuli/22.jpg","button_pressed":"0","name":"valence","trial_type":"image-button-response","trial_index":146,"time_elapsed":389775,"internal_node_id":"0.0-146.0","participant_id":"AR4XFM7G1W0VQ"},{"rt":2244,"response":"83","name":"rating","trial_type":"image-slider-response","trial_index":147,"time_elapsed":392020,"internal_node_id":"0.0-147.0","participant_id":"AR4XFM7G1W0VQ"},{"rt":1503,"stimulus":"stimuli/22.jpg","button_pressed":"1","name":"emotionType","trial_type":"image-button-response","trial_index":148,"time_elapsed":393524,"internal_node_id":"0.0-148.0","participant_id":"AR4XFM7G1W0VQ"},{"rt":null,"stimulus":"<p style=\"font-size: 48px;\">+</p>","key_press":null,"Name":"fixation","trial_type":"html-keyboard-response","trial_index":149,"time_elapsed":395025,"internal_node_id":"0.0-149.0","participant_id":"AR4XFM7G1W0VQ"},{"rt":null,"stimulus":"stimuli/9.jpg","button_pressed":null,"name":"noRating","trial_type":"image-button-response","trial_index":150,"time_elapsed":400027,"internal_node_id":"0.0-150.0","participant_id":"AR4XFM7G1W0VQ"},{"rt":1209,"stimulus":"stimuli/9.jpg","button_pressed":"0","name":"valence","trial_type":"image-button-response","trial_index":151,"time_elapsed":401237,"internal_node_id":"0.0-151.0","participant_id":"AR4XFM7G1W0VQ"},{"rt":2498,"response":"80","name":"rating","trial_type":"image-slider-response","trial_index":152,"time_elapsed":403737,"internal_node_id":"0.0-152.0","participant_id":"AR4XFM7G1W0VQ"},{"rt":1317,"stimulus":"stimuli/9.jpg","button_pressed":"1","name":"emotionType","trial_type":"image-button-response","trial_index":153,"time_elapsed":405055,"internal_node_id":"0.0-153.0","participant_id":"AR4XFM7G1W0VQ"},{"rt":null,"stimulus":"<p style=\"font-size: 48px;\">+</p>","key_press":null,"Name":"fixation","trial_type":"html-keyboard-response","trial_index":154,"time_elapsed":406060,"internal_node_id":"0.0-154.0","participant_id":"AR4XFM7G1W0VQ"},{"rt":null,"stimulus":"stimuli/41.jpg","button_pressed":null,"name":"noRating","trial_type":"image-button-response","trial_index":155,"time_elapsed":411162,"internal_node_id":"0.0-155.0","participant_id":"AR4XFM7G1W0VQ"},{"rt":2901,"stimulus":"stimuli/41.jpg","button_pressed":"0","name":"valence","trial_type":"image-button-response","trial_index":156,"time_elapsed":414063,"internal_node_id":"0.0-156.0","participant_id":"AR4XFM7G1W0VQ"},{"rt":2639,"response":"76","name":"rating","trial_type":"image-slider-response","trial_index":157,"time_elapsed":416704,"internal_node_id":"0.0-157.0","participant_id":"AR4XFM7G1W0VQ"},{"rt":759,"stimulus":"stimuli/41.jpg","button_pressed":"0","name":"emotionType","trial_type":"image-button-response","trial_index":158,"time_elapsed":417464,"internal_node_id":"0.0-158.0","participant_id":"AR4XFM7G1W0VQ"},{"rt":null,"stimulus":"<p style=\"font-size: 48px;\">+</p>","key_press":null,"Name":"fixation","trial_type":"html-keyboard-response","trial_index":159,"time_elapsed":418968,"internal_node_id":"0.0-159.0","participant_id":"AR4XFM7G1W0VQ"},{"rt":null,"stimulus":"stimuli/53.jpg","button_pressed":null,"name":"noRating","trial_type":"image-button-response","trial_index":160,"time_elapsed":423971,"internal_node_id":"0.0-160.0","participant_id":"AR4XFM7G1W0VQ"},{"rt":1432,"stimulus":"stimuli/53.jpg","button_pressed":"0","name":"valence","trial_type":"image-button-response","trial_index":161,"time_elapsed":425404,"internal_node_id":"0.0-161.0","participant_id":"AR4XFM7G1W0VQ"},{"rt":1917,"response":"73","name":"rating","trial_type":"image-slider-response","trial_index":162,"time_elapsed":427322,"internal_node_id":"0.0-162.0","participant_id":"AR4XFM7G1W0VQ"},{"rt":750,"stimulus":"stimuli/53.jpg","button_pressed":"1","name":"emotionType","trial_type":"image-button-response","trial_index":163,"time_elapsed":428074,"internal_node_id":"0.0-163.0","participant_id":"AR4XFM7G1W0VQ"},{"rt":3651,"stimulus":"stimuli/ins/Slide8.JPG","button_pressed":"0","trial_type":"image-button-response","trial_index":164,"time_elapsed":431725,"internal_node_id":"0.0-164.0","participant_id":"AR4XFM7G1W0VQ"}]