[{"rt":7836,"responses":"{\"Q0\":\"ASP32QB28TEZU\"}","trial_type":"survey-text","trial_index":0,"time_elapsed":7838,"internal_node_id":"0.0-0.0-0.0","participant_id":"ASP32QB28TEZU"},{"rt":6873,"stimulus":"stimuli/ins/Slide1.JPG","button_pressed":"0","Name":"instructions","trial_type":"image-button-response","trial_index":1,"time_elapsed":14714,"internal_node_id":"0.0-1.0","participant_id":"ASP32QB28TEZU"},{"rt":3636,"stimulus":"stimuli/ins/Slide2.JPG","button_pressed":"0","Name":"instructions","trial_type":"image-button-response","trial_index":2,"time_elapsed":18352,"internal_node_id":"0.0-2.0","participant_id":"ASP32QB28TEZU"},{"rt":3721,"stimulus":"stimuli/ins/Slide3.JPG","button_pressed":"0","Name":"instructions","trial_type":"image-button-response","trial_index":3,"time_elapsed":22074,"internal_node_id":"0.0-3.0","participant_id":"ASP32QB28TEZU"},{"rt":6297,"stimulus":"stimuli/ins/Slide4.JPG","button_pressed":"0","Name":"instructions","trial_type":"image-button-response","trial_index":4,"time_elapsed":28372,"internal_node_id":"0.0-4.0","participant_id":"ASP32QB28TEZU"},{"rt":3137,"stimulus":"stimuli/ins/Slide5.JPG","button_pressed":"0","Name":"instructions","trial_type":"image-button-response","trial_index":5,"time_elapsed":31510,"internal_node_id":"0.0-5.0","participant_id":"ASP32QB28TEZU"},{"rt":3744,"stimulus":"stimuli/ins/Slide6.JPG","button_pressed":"0","Name":"instructions","trial_type":"image-button-response","trial_index":6,"time_elapsed":35255,"internal_node_id":"0.0-6.0","participant_id":"ASP32QB28TEZU"},{"rt":1895,"stimulus":"stimuli/ins/Slide7.JPG","button_pressed":"0","Name":"instructions","trial_type":"image-button-response","trial_index":7,"time_elapsed":37152,"internal_node_id":"0.0-7.0","participant_id":"ASP32QB28TEZU"},{"rt":11830,"responses":"{\"Q0\":\"but\"}","trial_type":"survey-text","trial_index":8,"time_elapsed":48983,"internal_node_id":"0.0-8.0-0.0","participant_id":"ASP32QB28TEZU"},{"rt":null,"stimulus":"<p style=\"font-size: 48px;\">+</p>","key_press":null,"Name":"fixation","trial_type":"html-keyboard-response","trial_index":9,"time_elapsed":50485,"internal_node_id":"0.0-9.0","participant_id":"ASP32QB28TEZU"},{"rt":null,"stimulus":"stimuli/5.jpg","button_pressed":null,"name":"noRating","trial_type":"image-button-response","trial_index":10,"time_elapsed":55488,"internal_node_id":"0.0-10.0","participant_id":"ASP32QB28TEZU"},{"rt":1640,"stimulus":"stimuli/5.jpg","button_pressed":"0","name":"valence","trial_type":"image-button-response","trial_index":11,"time_elapsed":57129,"internal_node_id":"0.0-11.0","participant_id":"ASP32QB28TEZU"},{"rt":3892,"response":"100","name":"rating","trial_type":"image-slider-response","trial_index":12,"time_elapsed":61025,"internal_node_id":"0.0-12.0","participant_id":"ASP32QB28TEZU"},{"rt":1498,"stimulus":"stimuli/5.jpg","button_pressed":"0","name":"emotionType","trial_type":"image-button-response","trial_index":13,"time_elapsed":62525,"internal_node_id":"0.0-13.0","participant_id":"ASP32QB28TEZU"},{"rt":null,"stimulus":"<p style=\"font-size: 48px;\">+</p>","key_press":null,"Name":"fixation","trial_type":"html-keyboard-response","trial_index":14,"time_elapsed":63027,"internal_node_id":"0.0-14.0","participant_id":"ASP32QB28TEZU"},{"rt":null,"stimulus":"stimuli/18.jpg","button_pressed":null,"name":"noRating","trial_type":"image-button-response","trial_index":15,"time_elapsed":68028,"internal_node_id":"0.0-15.0","participant_id":"ASP32QB28TEZU"},{"rt":1467,"stimulus":"stimuli/18.jpg","button_pressed":"0","name":"valence","trial_type":"image-button-response","trial_index":16,"time_elapsed":69495,"internal_node_id":"0.0-16.0","participant_id":"ASP32QB28TEZU"},{"rt":3242,"response":"100","name":"rating","trial_type":"image-slider-response","trial_index":17,"time_elapsed":72739,"internal_node_id":"0.0-17.0","participant_id":"ASP32QB28TEZU"},{"rt":2218,"stimulus":"stimuli/18.jpg","button_pressed":"1","name":"emotionType","trial_type":"image-button-response","trial_index":18,"time_elapsed":74959,"internal_node_id":"0.0-18.0","participant_id":"ASP32QB28TEZU"},{"rt":null,"stimulus":"<p style=\"font-size: 48px;\">+</p>","key_press":null,"Name":"fixation","trial_type":"html-keyboard-response","trial_index":19,"time_elapsed":75960,"internal_node_id":"0.0-19.0","participant_id":"ASP32QB28TEZU"},{"rt":null,"stimulus":"stimuli/24.jpg","button_pressed":null,"name":"noRating","trial_type":"image-button-response","trial_index":20,"time_elapsed":80960,"internal_node_id":"0.0-20.0","participant_id":"ASP32QB28TEZU"},{"rt":1027,"stimulus":"stimuli/24.jpg","button_pressed":"0","name":"valence","trial_type":"image-button-response","trial_index":21,"time_elapsed":81988,"internal_node_id":"0.0-21.0","participant_id":"ASP32QB28TEZU"},{"rt":2381,"response":"100","name":"rating","trial_type":"image-slider-response","trial_index":22,"time_elapsed":84370,"internal_node_id":"0.0-22.0","participant_id":"ASP32QB28TEZU"},{"rt":1387,"stimulus":"stimuli/24.jpg","button_pressed":"1","name":"emotionType","trial_type":"image-button-response","trial_index":23,"time_elapsed":85758,"internal_node_id":"0.0-23.0","participant_id":"ASP32QB28TEZU"},{"rt":null,"stimulus":"<p style=\"font-size: 48px;\">+</p>","key_press":null,"Name":"fixation","trial_type":"html-keyboard-response","trial_index":24,"time_elapsed":86260,"internal_node_id":"0.0-24.0","participant_id":"ASP32QB28TEZU"},{"rt":null,"stimulus":"stimuli/17.jpg","button_pressed":null,"name":"noRating","trial_type":"image-button-response","trial_index":25,"time_elapsed":91261,"internal_node_id":"0.0-25.0","participant_id":"ASP32QB28TEZU"},{"rt":1565,"stimulus":"stimuli/17.jpg","button_pressed":"0","name":"valence","trial_type":"image-button-response","trial_index":26,"time_elapsed":92826,"internal_node_id":"0.0-26.0","participant_id":"ASP32QB28TEZU"},{"rt":1865,"response":"100","name":"rating","trial_type":"image-slider-response","trial_index":27,"time_elapsed":94692,"internal_node_id":"0.0-27.0","participant_id":"ASP32QB28TEZU"},{"rt":1924,"stimulus":"stimuli/17.jpg","button_pressed":"1","name":"emotionType","trial_type":"image-button-response","trial_index":28,"time_elapsed":96618,"internal_node_id":"0.0-28.0","participant_id":"ASP32QB28TEZU"},{"rt":null,"stimulus":"<p style=\"font-size: 48px;\">+</p>","key_press":null,"Name":"fixation","trial_type":"html-keyboard-response","trial_index":29,"time_elapsed":98119,"internal_node_id":"0.0-29.0","participant_id":"ASP32QB28TEZU"},{"rt":null,"stimulus":"stimuli/68.jpg","button_pressed":null,"name":"noRating","trial_type":"image-button-response","trial_index":30,"time_elapsed":103120,"internal_node_id":"0.0-30.0","participant_id":"ASP32QB28TEZU"},{"rt":890,"stimulus":"stimuli/68.jpg","button_pressed":"0","name":"valence","trial_type":"image-button-response","trial_index":31,"time_elapsed":104012,"internal_node_id":"0.0-31.0","participant_id":"ASP32QB28TEZU"},{"rt":1762,"response":"100","name":"rating","trial_type":"image-slider-response","trial_index":32,"time_elapsed":105776,"internal_node_id":"0.0-32.0","participant_id":"ASP32QB28TEZU"},{"rt":971,"stimulus":"stimuli/68.jpg","button_pressed":"0","name":"emotionType","trial_type":"image-button-response","trial_index":33,"time_elapsed":106748,"internal_node_id":"0.0-33.0","participant_id":"ASP32QB28TEZU"},{"rt":5570,"responses":"{\"Q0\":\"rock\"}","trial_type":"survey-text","trial_index":34,"time_elapsed":112320,"internal_node_id":"0.0-34.0-0.0","participant_id":"ASP32QB28TEZU"},{"rt":null,"stimulus":"<p style=\"font-size: 48px;\">+</p>","key_press":null,"Name":"fixation","trial_type":"html-keyboard-response","trial_index":35,"time_elapsed":113322,"internal_node_id":"0.0-35.0","participant_id":"ASP32QB28TEZU"},{"rt":null,"stimulus":"stimuli/67.jpg","button_pressed":null,"name":"noRating","trial_type":"image-button-response","trial_index":36,"time_elapsed":118323,"internal_node_id":"0.0-36.0","participant_id":"ASP32QB28TEZU"},{"rt":895,"stimulus":"stimuli/67.jpg","button_pressed":"0","name":"valence","trial_type":"image-button-response","trial_index":37,"time_elapsed":119220,"internal_node_id":"0.0-37.0","participant_id":"ASP32QB28TEZU"},{"rt":1924,"response":"100","name":"rating","trial_type":"image-slider-response","trial_index":38,"time_elapsed":121145,"internal_node_id":"0.0-38.0","participant_id":"ASP32QB28TEZU"},{"rt":1125,"stimulus":"stimuli/67.jpg","button_pressed":"0","name":"emotionType","trial_type":"image-button-response","trial_index":39,"time_elapsed":122272,"internal_node_id":"0.0-39.0","participant_id":"ASP32QB28TEZU"},{"rt":null,"stimulus":"<p style=\"font-size: 48px;\">+</p>","key_press":null,"Name":"fixation","trial_type":"html-keyboard-response","trial_index":40,"time_elapsed":123774,"internal_node_id":"0.0-40.0","participant_id":"ASP32QB28TEZU"},{"rt":null,"stimulus":"stimuli/48.jpg","button_pressed":null,"name":"noRating","trial_type":"image-button-response","trial_index":41,"time_elapsed":128776,"internal_node_id":"0.0-41.0","participant_id":"ASP32QB28TEZU"},{"rt":1425,"stimulus":"stimuli/48.jpg","button_pressed":"0","name":"valence","trial_type":"image-button-response","trial_index":42,"time_elapsed":130201,"internal_node_id":"0.0-42.0","participant_id":"ASP32QB28TEZU"},{"rt":2225,"response":"100","name":"rating","trial_type":"image-slider-response","trial_index":43,"time_elapsed":132429,"internal_node_id":"0.0-43.0","participant_id":"ASP32QB28TEZU"},{"rt":685,"stimulus":"stimuli/48.jpg","button_pressed":"0","name":"emotionType","trial_type":"image-button-response","trial_index":44,"time_elapsed":133115,"internal_node_id":"0.0-44.0","participant_id":"ASP32QB28TEZU"},{"rt":null,"stimulus":"<p style=\"font-size: 48px;\">+</p>","key_press":null,"Name":"fixation","trial_type":"html-keyboard-response","trial_index":45,"time_elapsed":134617,"internal_node_id":"0.0-45.0","participant_id":"ASP32QB28TEZU"},{"rt":null,"stimulus":"stimuli/33.jpg","button_pressed":null,"name":"noRating","trial_type":"image-button-response","trial_index":46,"time_elapsed":139618,"internal_node_id":"0.0-46.0","participant_id":"ASP32QB28TEZU"},{"rt":1127,"stimulus":"stimuli/33.jpg","button_pressed":"0","name":"valence","trial_type":"image-button-response","trial_index":47,"time_elapsed":140745,"internal_node_id":"0.0-47.0","participant_id":"ASP32QB28TEZU"},{"rt":1918,"response":"100","name":"rating","trial_type":"image-slider-response","trial_index":48,"time_elapsed":142664,"internal_node_id":"0.0-48.0","participant_id":"ASP32QB28TEZU"},{"rt":1061,"stimulus":"stimuli/33.jpg","button_pressed":"0","name":"emotionType","trial_type":"image-button-response","trial_index":49,"time_elapsed":143727,"internal_node_id":"0.0-49.0","participant_id":"ASP32QB28TEZU"},{"rt":null,"stimulus":"<p style=\"font-size: 48px;\">+</p>","key_press":null,"Name":"fixation","trial_type":"html-keyboard-response","trial_index":50,"time_elapsed":144228,"internal_node_id":"0.0-50.0","participant_id":"ASP32QB28TEZU"},{"rt":null,"stimulus":"stimuli/49.jpg","button_pressed":null,"name":"noRating","trial_type":"image-button-response","trial_index":51,"time_elapsed":149229,"internal_node_id":"0.0-51.0","participant_id":"ASP32QB28TEZU"},{"rt":1265,"stimulus":"stimuli/49.jpg","button_pressed":"0","name":"valence","trial_type":"image-button-response","trial_index":52,"time_elapsed":150494,"internal_node_id":"0.0-52.0","participant_id":"ASP32QB28TEZU"},{"rt":1903,"response":"100","name":"rating","trial_type":"image-slider-response","trial_index":53,"time_elapsed":152399,"internal_node_id":"0.0-53.0","participant_id":"ASP32QB28TEZU"},{"rt":960,"stimulus":"stimuli/49.jpg","button_pressed":"0","name":"emotionType","trial_type":"image-button-response","trial_index":54,"time_elapsed":153361,"internal_node_id":"0.0-54.0","participant_id":"ASP32QB28TEZU"},{"rt":null,"stimulus":"<p style=\"font-size: 48px;\">+</p>","key_press":null,"Name":"fixation","trial_type":"html-keyboard-response","trial_index":55,"time_elapsed":154362,"internal_node_id":"0.0-55.0","participant_id":"ASP32QB28TEZU"},{"rt":null,"stimulus":"stimuli/66.jpg","button_pressed":null,"name":"noRating","trial_type":"image-button-response","trial_index":56,"time_elapsed":159363,"internal_node_id":"0.0-56.0","participant_id":"ASP32QB28TEZU"},{"rt":1003,"stimulus":"stimuli/66.jpg","button_pressed":"0","name":"valence","trial_type":"image-button-response","trial_index":57,"time_elapsed":160366,"internal_node_id":"0.0-57.0","participant_id":"ASP32QB28TEZU"},{"rt":1694,"response":"100","name":"rating","trial_type":"image-slider-response","trial_index":58,"time_elapsed":162062,"internal_node_id":"0.0-58.0","participant_id":"ASP32QB28TEZU"},{"rt":839,"stimulus":"stimuli/66.jpg","button_pressed":"0","name":"emotionType","trial_type":"image-button-response","trial_index":59,"time_elapsed":162902,"internal_node_id":"0.0-59.0","participant_id":"ASP32QB28TEZU"},{"rt":4169,"responses":"{\"Q0\":\"sky\"}","trial_type":"survey-text","trial_index":60,"time_elapsed":167073,"internal_node_id":"0.0-60.0-0.0","participant_id":"ASP32QB28TEZU"},{"rt":null,"stimulus":"<p style=\"font-size: 48px;\">+</p>","key_press":null,"Name":"fixation","trial_type":"html-keyboard-response","trial_index":61,"time_elapsed":168074,"internal_node_id":"0.0-61.0","participant_id":"ASP32QB28TEZU"},{"rt":null,"stimulus":"stimuli/8.jpg","button_pressed":null,"name":"noRating","trial_type":"image-button-response","trial_index":62,"time_elapsed":173077,"internal_node_id":"0.0-62.0","participant_id":"ASP32QB28TEZU"},{"rt":1207,"stimulus":"stimuli/8.jpg","button_pressed":"0","name":"valence","trial_type":"image-button-response","trial_index":63,"time_elapsed":174284,"internal_node_id":"0.0-63.0","participant_id":"ASP32QB28TEZU"},{"rt":1927,"response":"100","name":"rating","trial_type":"image-slider-response","trial_index":64,"time_elapsed":176212,"internal_node_id":"0.0-64.0","participant_id":"ASP32QB28TEZU"},{"rt":2919,"stimulus":"stimuli/8.jpg","button_pressed":"0","name":"emotionType","trial_type":"image-button-response","trial_index":65,"time_elapsed":179132,"internal_node_id":"0.0-65.0","participant_id":"ASP32QB28TEZU"},{"rt":null,"stimulus":"<p style=\"font-size: 48px;\">+</p>","key_press":null,"Name":"fixation","trial_type":"html-keyboard-response","trial_index":66,"time_elapsed":179633,"internal_node_id":"0.0-66.0","participant_id":"ASP32QB28TEZU"},{"rt":null,"stimulus":"stimuli/63.jpg","button_pressed":null,"name":"noRating","trial_type":"image-button-response","trial_index":67,"time_elapsed":184635,"internal_node_id":"0.0-67.0","participant_id":"ASP32QB28TEZU"},{"rt":1239,"stimulus":"stimuli/63.jpg","button_pressed":"0","name":"valence","trial_type":"image-button-response","trial_index":68,"time_elapsed":185876,"internal_node_id":"0.0-68.0","participant_id":"ASP32QB28TEZU"},{"rt":2604,"response":"100","name":"rating","trial_type":"image-slider-response","trial_index":69,"time_elapsed":188482,"internal_node_id":"0.0-69.0","participant_id":"ASP32QB28TEZU"},{"rt":1832,"stimulus":"stimuli/63.jpg","button_pressed":"0","name":"emotionType","trial_type":"image-button-response","trial_index":70,"time_elapsed":190316,"internal_node_id":"0.0-70.0","participant_id":"ASP32QB28TEZU"},{"rt":null,"stimulus":"<p style=\"font-size: 48px;\">+</p>","key_press":null,"Name":"fixation","trial_type":"html-keyboard-response","trial_index":71,"time_elapsed":191819,"internal_node_id":"0.0-71.0","participant_id":"ASP32QB28TEZU"},{"rt":null,"stimulus":"stimuli/50.jpg","button_pressed":null,"name":"noRating","trial_type":"image-button-response","trial_index":72,"time_elapsed":196820,"internal_node_id":"0.0-72.0","participant_id":"ASP32QB28TEZU"},{"rt":1210,"stimulus":"stimuli/50.jpg","button_pressed":"0","name":"valence","trial_type":"image-button-response","trial_index":73,"time_elapsed":198032,"internal_node_id":"0.0-73.0","participant_id":"ASP32QB28TEZU"},{"rt":3111,"response":"100","name":"rating","trial_type":"image-slider-response","trial_index":74,"time_elapsed":201144,"internal_node_id":"0.0-74.0","participant_id":"ASP32QB28TEZU"},{"rt":1828,"stimulus":"stimuli/50.jpg","button_pressed":"1","name":"emotionType","trial_type":"image-button-response","trial_index":75,"time_elapsed":202972,"internal_node_id":"0.0-75.0","participant_id":"ASP32QB28TEZU"},{"rt":null,"stimulus":"<p style=\"font-size: 48px;\">+</p>","key_press":null,"Name":"fixation","trial_type":"html-keyboard-response","trial_index":76,"time_elapsed":204473,"internal_node_id":"0.0-76.0","participant_id":"ASP32QB28TEZU"},{"rt":null,"stimulus":"stimuli/51.jpg","button_pressed":null,"name":"noRating","trial_type":"image-button-response","trial_index":77,"time_elapsed":209475,"internal_node_id":"0.0-77.0","participant_id":"ASP32QB28TEZU"},{"rt":1049,"stimulus":"stimuli/51.jpg","button_pressed":"0","name":"valence","trial_type":"image-button-response","trial_index":78,"time_elapsed":210524,"internal_node_id":"0.0-78.0","participant_id":"ASP32QB28TEZU"},{"rt":2056,"response":"100","name":"rating","trial_type":"image-slider-response","trial_index":79,"time_elapsed":212582,"internal_node_id":"0.0-79.0","participant_id":"ASP32QB28TEZU"},{"rt":1347,"stimulus":"stimuli/51.jpg","button_pressed":"1","name":"emotionType","trial_type":"image-button-response","trial_index":80,"time_elapsed":213930,"internal_node_id":"0.0-80.0","participant_id":"ASP32QB28TEZU"},{"rt":null,"stimulus":"<p style=\"font-size: 48px;\">+</p>","key_press":null,"Name":"fixation","trial_type":"html-keyboard-response","trial_index":81,"time_elapsed":214433,"internal_node_id":"0.0-81.0","participant_id":"ASP32QB28TEZU"},{"rt":null,"stimulus":"stimuli/27.jpg","button_pressed":null,"name":"noRating","trial_type":"image-button-response","trial_index":82,"time_elapsed":219434,"internal_node_id":"0.0-82.0","participant_id":"ASP32QB28TEZU"},{"rt":1223,"stimulus":"stimuli/27.jpg","button_pressed":"0","name":"valence","trial_type":"image-button-response","trial_index":83,"time_elapsed":220658,"internal_node_id":"0.0-83.0","participant_id":"ASP32QB28TEZU"},{"rt":2918,"response":"100","name":"rating","trial_type":"image-slider-response","trial_index":84,"time_elapsed":223578,"internal_node_id":"0.0-84.0","participant_id":"ASP32QB28TEZU"},{"rt":2157,"stimulus":"stimuli/27.jpg","button_pressed":"0","name":"emotionType","trial_type":"image-button-response","trial_index":85,"time_elapsed":225736,"internal_node_id":"0.0-85.0","participant_id":"ASP32QB28TEZU"},{"rt":4460,"responses":"{\"Q0\":\"our\"}","trial_type":"survey-text","trial_index":86,"time_elapsed":230198,"internal_node_id":"0.0-86.0-0.0","participant_id":"ASP32QB28TEZU"},{"rt":null,"stimulus":"<p style=\"font-size: 48px;\">+</p>","key_press":null,"Name":"fixation","trial_type":"html-keyboard-response","trial_index":87,"time_elapsed":231199,"internal_node_id":"0.0-87.0","participant_id":"ASP32QB28TEZU"},{"rt":null,"stimulus":"stimuli/35.jpg","button_pressed":null,"name":"noRating","trial_type":"image-button-response","trial_index":88,"time_elapsed":236488,"internal_node_id":"0.0-88.0","participant_id":"ASP32QB28TEZU"},{"rt":1036,"stimulus":"stimuli/35.jpg","button_pressed":"0","name":"valence","trial_type":"image-button-response","trial_index":89,"time_elapsed":237526,"internal_node_id":"0.0-89.0","participant_id":"ASP32QB28TEZU"},{"rt":2400,"response":"100","name":"rating","trial_type":"image-slider-response","trial_index":90,"time_elapsed":239927,"internal_node_id":"0.0-90.0","participant_id":"ASP32QB28TEZU"},{"rt":685,"stimulus":"stimuli/35.jpg","button_pressed":"1","name":"emotionType","trial_type":"image-button-response","trial_index":91,"time_elapsed":240613,"internal_node_id":"0.0-91.0","participant_id":"ASP32QB28TEZU"},{"rt":null,"stimulus":"<p style=\"font-size: 48px;\">+</p>","key_press":null,"Name":"fixation","trial_type":"html-keyboard-response","trial_index":92,"time_elapsed":241615,"internal_node_id":"0.0-92.0","participant_id":"ASP32QB28TEZU"},{"rt":null,"stimulus":"stimuli/10.jpg","button_pressed":null,"name":"noRating","trial_type":"image-button-response","trial_index":93,"time_elapsed":246617,"internal_node_id":"0.0-93.0","participant_id":"ASP32QB28TEZU"},{"rt":778,"stimulus":"stimuli/10.jpg","button_pressed":"0","name":"valence","trial_type":"image-button-response","trial_index":94,"time_elapsed":247395,"internal_node_id":"0.0-94.0","participant_id":"ASP32QB28TEZU"},{"rt":2465,"response":"100","name":"rating","trial_type":"image-slider-response","trial_index":95,"time_elapsed":249861,"internal_node_id":"0.0-95.0","participant_id":"ASP32QB28TEZU"},{"rt":771,"stimulus":"stimuli/10.jpg","button_pressed":"0","name":"emotionType","trial_type":"image-button-response","trial_index":96,"time_elapsed":250633,"internal_node_id":"0.0-96.0","participant_id":"ASP32QB28TEZU"},{"rt":null,"stimulus":"<p style=\"font-size: 48px;\">+</p>","key_press":null,"Name":"fixation","trial_type":"html-keyboard-response","trial_index":97,"time_elapsed":252134,"internal_node_id":"0.0-97.0","participant_id":"ASP32QB28TEZU"},{"rt":null,"stimulus":"stimuli/6.jpg","button_pressed":null,"name":"noRating","trial_type":"image-button-response","trial_index":98,"time_elapsed":257135,"internal_node_id":"0.0-98.0","participant_id":"ASP32QB28TEZU"},{"rt":1025,"stimulus":"stimuli/6.jpg","button_pressed":"0","name":"valence","trial_type":"image-button-response","trial_index":99,"time_elapsed":258161,"internal_node_id":"0.0-99.0","participant_id":"ASP32QB28TEZU"},{"rt":2589,"response":"100","name":"rating","trial_type":"image-slider-response","trial_index":100,"time_elapsed":260751,"internal_node_id":"0.0-100.0","participant_id":"ASP32QB28TEZU"},{"rt":1939,"stimulus":"stimuli/6.jpg","button_pressed":"0","name":"emotionType","trial_type":"image-button-response","trial_index":101,"time_elapsed":262691,"internal_node_id":"0.0-101.0","participant_id":"ASP32QB28TEZU"},{"rt":null,"stimulus":"<p style=\"font-size: 48px;\">+</p>","key_press":null,"Name":"fixation","trial_type":"html-keyboard-response","trial_index":102,"time_elapsed":263694,"internal_node_id":"0.0-102.0","participant_id":"ASP32QB28TEZU"},{"rt":null,"stimulus":"stimuli/26.jpg","button_pressed":null,"name":"noRating","trial_type":"image-button-response","trial_index":103,"time_elapsed":268696,"internal_node_id":"0.0-103.0","participant_id":"ASP32QB28TEZU"},{"rt":1130,"stimulus":"stimuli/26.jpg","button_pressed":"0","name":"valence","trial_type":"image-button-response","trial_index":104,"time_elapsed":269827,"internal_node_id":"0.0-104.0","participant_id":"ASP32QB28TEZU"},{"rt":2719,"response":"100","name":"rating","trial_type":"image-slider-response","trial_index":105,"time_elapsed":272547,"internal_node_id":"0.0-105.0","participant_id":"ASP32QB28TEZU"},{"rt":1163,"stimulus":"stimuli/26.jpg","button_pressed":"0","name":"emotionType","trial_type":"image-button-response","trial_index":106,"time_elapsed":273711,"internal_node_id":"0.0-106.0","participant_id":"ASP32QB28TEZU"},{"rt":null,"stimulus":"<p style=\"font-size: 48px;\">+</p>","key_press":null,"Name":"fixation","trial_type":"html-keyboard-response","trial_index":107,"time_elapsed":274714,"internal_node_id":"0.0-107.0","participant_id":"ASP32QB28TEZU"},{"rt":null,"stimulus":"stimuli/34.jpg","button_pressed":null,"name":"noRating","trial_type":"image-button-response","trial_index":108,"time_elapsed":279715,"internal_node_id":"0.0-108.0","participant_id":"ASP32QB28TEZU"},{"rt":2033,"stimulus":"stimuli/34.jpg","button_pressed":"0","name":"valence","trial_type":"image-button-response","trial_index":109,"time_elapsed":281749,"internal_node_id":"0.0-109.0","participant_id":"ASP32QB28TEZU"},{"rt":1978,"response":"100","name":"rating","trial_type":"image-slider-response","trial_index":110,"time_elapsed":283729,"internal_node_id":"0.0-110.0","participant_id":"ASP32QB28TEZU"},{"rt":878,"stimulus":"stimuli/34.jpg","button_pressed":"0","name":"emotionType","trial_type":"image-button-response","trial_index":111,"time_elapsed":284607,"internal_node_id":"0.0-111.0","participant_id":"ASP32QB28TEZU"},{"rt":5670,"responses":"{\"Q0\":\"course\"}","trial_type":"survey-text","trial_index":112,"time_elapsed":290279,"internal_node_id":"0.0-112.0-0.0","participant_id":"ASP32QB28TEZU"},{"rt":null,"stimulus":"<p style=\"font-size: 48px;\">+</p>","key_press":null,"Name":"fixation","trial_type":"html-keyboard-response","trial_index":113,"time_elapsed":291781,"internal_node_id":"0.0-113.0","participant_id":"ASP32QB28TEZU"},{"rt":null,"stimulus":"stimuli/32.jpg","button_pressed":null,"name":"noRating","trial_type":"image-button-response","trial_index":114,"time_elapsed":296782,"internal_node_id":"0.0-114.0","participant_id":"ASP32QB28TEZU"},{"rt":1202,"stimulus":"stimuli/32.jpg","button_pressed":"0","name":"valence","trial_type":"image-button-response","trial_index":115,"time_elapsed":297985,"internal_node_id":"0.0-115.0","participant_id":"ASP32QB28TEZU"},{"rt":2888,"response":"100","name":"rating","trial_type":"image-slider-response","trial_index":116,"time_elapsed":300874,"internal_node_id":"0.0-116.0","participant_id":"ASP32QB28TEZU"},{"rt":1085,"stimulus":"stimuli/32.jpg","button_pressed":"1","name":"emotionType","trial_type":"image-button-response","trial_index":117,"time_elapsed":301960,"internal_node_id":"0.0-117.0","participant_id":"ASP32QB28TEZU"},{"rt":null,"stimulus":"<p style=\"font-size: 48px;\">+</p>","key_press":null,"Name":"fixation","trial_type":"html-keyboard-response","trial_index":118,"time_elapsed":302462,"internal_node_id":"0.0-118.0","participant_id":"ASP32QB28TEZU"},{"rt":null,"stimulus":"stimuli/46.jpg","button_pressed":null,"name":"noRating","trial_type":"image-button-response","trial_index":119,"time_elapsed":307463,"internal_node_id":"0.0-119.0","participant_id":"ASP32QB28TEZU"},{"rt":1071,"stimulus":"stimuli/46.jpg","button_pressed":"0","name":"valence","trial_type":"image-button-response","trial_index":120,"time_elapsed":308534,"internal_node_id":"0.0-120.0","participant_id":"ASP32QB28TEZU"},{"rt":2703,"response":"100","name":"rating","trial_type":"image-slider-response","trial_index":121,"time_elapsed":311238,"internal_node_id":"0.0-121.0","participant_id":"ASP32QB28TEZU"},{"rt":901,"stimulus":"stimuli/46.jpg","button_pressed":"0","name":"emotionType","trial_type":"image-button-response","trial_index":122,"time_elapsed":312140,"internal_node_id":"0.0-122.0","participant_id":"ASP32QB28TEZU"},{"rt":null,"stimulus":"<p style=\"font-size: 48px;\">+</p>","key_press":null,"Name":"fixation","trial_type":"html-keyboard-response","trial_index":123,"time_elapsed":313142,"internal_node_id":"0.0-123.0","participant_id":"ASP32QB28TEZU"},{"rt":null,"stimulus":"stimuli/42.jpg","button_pressed":null,"name":"noRating","trial_type":"image-button-response","trial_index":124,"time_elapsed":318142,"internal_node_id":"0.0-124.0","participant_id":"ASP32QB28TEZU"},{"rt":879,"stimulus":"stimuli/42.jpg","button_pressed":"0","name":"valence","trial_type":"image-button-response","trial_index":125,"time_elapsed":319022,"internal_node_id":"0.0-125.0","participant_id":"ASP32QB28TEZU"},{"rt":2533,"response":"100","name":"rating","trial_type":"image-slider-response","trial_index":126,"time_elapsed":321556,"internal_node_id":"0.0-126.0","participant_id":"ASP32QB28TEZU"},{"rt":893,"stimulus":"stimuli/42.jpg","button_pressed":"0","name":"emotionType","trial_type":"image-button-response","trial_index":127,"time_elapsed":322450,"internal_node_id":"0.0-127.0","participant_id":"ASP32QB28TEZU"},{"rt":null,"stimulus":"<p style=\"font-size: 48px;\">+</p>","key_press":null,"Name":"fixation","trial_type":"html-keyboard-response","trial_index":128,"time_elapsed":322951,"internal_node_id":"0.0-128.0","participant_id":"ASP32QB28TEZU"},{"rt":null,"stimulus":"stimuli/61.jpg","button_pressed":null,"name":"noRating","trial_type":"image-button-response","trial_index":129,"time_elapsed":327952,"internal_node_id":"0.0-129.0","participant_id":"ASP32QB28TEZU"},{"rt":1063,"stimulus":"stimuli/61.jpg","button_pressed":"0","name":"valence","trial_type":"image-button-response","trial_index":130,"time_elapsed":329016,"internal_node_id":"0.0-130.0","participant_id":"ASP32QB28TEZU"},{"rt":2310,"response":"100","name":"rating","trial_type":"image-slider-response","trial_index":131,"time_elapsed":331328,"internal_node_id":"0.0-131.0","participant_id":"ASP32QB28TEZU"},{"rt":961,"stimulus":"stimuli/61.jpg","button_pressed":"0","name":"emotionType","trial_type":"image-button-response","trial_index":132,"time_elapsed":332290,"internal_node_id":"0.0-132.0","participant_id":"ASP32QB28TEZU"},{"rt":null,"stimulus":"<p style=\"font-size: 48px;\">+</p>","key_press":null,"Name":"fixation","trial_type":"html-keyboard-response","trial_index":133,"time_elapsed":332791,"internal_node_id":"0.0-133.0","participant_id":"ASP32QB28TEZU"},{"rt":null,"stimulus":"stimuli/7.jpg","button_pressed":null,"name":"noRating","trial_type":"image-button-response","trial_index":134,"time_elapsed":337792,"internal_node_id":"0.0-134.0","participant_id":"ASP32QB28TEZU"},{"rt":916,"stimulus":"stimuli/7.jpg","button_pressed":"0","name":"valence","trial_type":"image-button-response","trial_index":135,"time_elapsed":338710,"internal_node_id":"0.0-135.0","participant_id":"ASP32QB28TEZU"},{"rt":2456,"response":"100","name":"rating","trial_type":"image-slider-response","trial_index":136,"time_elapsed":341168,"internal_node_id":"0.0-136.0","participant_id":"ASP32QB28TEZU"},{"rt":784,"stimulus":"stimuli/7.jpg","button_pressed":"0","name":"emotionType","trial_type":"image-button-response","trial_index":137,"time_elapsed":341954,"internal_node_id":"0.0-137.0","participant_id":"ASP32QB28TEZU"},{"rt":3327,"responses":"{\"Q0\":\"we\"}","trial_type":"survey-text","trial_index":138,"time_elapsed":345282,"internal_node_id":"0.0-138.0-0.0","participant_id":"ASP32QB28TEZU"},{"rt":null,"stimulus":"<p style=\"font-size: 48px;\">+</p>","key_press":null,"Name":"fixation","trial_type":"html-keyboard-response","trial_index":139,"time_elapsed":345783,"internal_node_id":"0.0-139.0","participant_id":"ASP32QB28TEZU"},{"rt":null,"stimulus":"stimuli/28.jpg","button_pressed":null,"name":"noRating","trial_type":"image-button-response","trial_index":140,"time_elapsed":350785,"internal_node_id":"0.0-140.0","participant_id":"ASP32QB28TEZU"},{"rt":1302,"stimulus":"stimuli/28.jpg","button_pressed":"0","name":"valence","trial_type":"image-button-response","trial_index":141,"time_elapsed":352087,"internal_node_id":"0.0-141.0","participant_id":"ASP32QB28TEZU"},{"rt":2457,"response":"100","name":"rating","trial_type":"image-slider-response","trial_index":142,"time_elapsed":354545,"internal_node_id":"0.0-142.0","participant_id":"ASP32QB28TEZU"},{"rt":977,"stimulus":"stimuli/28.jpg","button_pressed":"0","name":"emotionType","trial_type":"image-button-response","trial_index":143,"time_elapsed":355524,"internal_node_id":"0.0-143.0","participant_id":"ASP32QB28TEZU"},{"rt":null,"stimulus":"<p style=\"font-size: 48px;\">+</p>","key_press":null,"Name":"fixation","trial_type":"html-keyboard-response","trial_index":144,"time_elapsed":356026,"internal_node_id":"0.0-144.0","participant_id":"ASP32QB28TEZU"},{"rt":null,"stimulus":"stimuli/60.jpg","button_pressed":null,"name":"noRating","trial_type":"image-button-response","trial_index":145,"time_elapsed":361027,"internal_node_id":"0.0-145.0","participant_id":"ASP32QB28TEZU"},{"rt":861,"stimulus":"stimuli/60.jpg","button_pressed":"0","name":"valence","trial_type":"image-button-response","trial_index":146,"time_elapsed":361889,"internal_node_id":"0.0-146.0","participant_id":"ASP32QB28TEZU"},{"rt":2163,"response":"100","name":"rating","trial_type":"image-slider-response","trial_index":147,"time_elapsed":364053,"internal_node_id":"0.0-147.0","participant_id":"ASP32QB28TEZU"},{"rt":809,"stimulus":"stimuli/60.jpg","button_pressed":"1","name":"emotionType","trial_type":"image-button-response","trial_index":148,"time_elapsed":364863,"internal_node_id":"0.0-148.0","participant_id":"ASP32QB28TEZU"},{"rt":null,"stimulus":"<p style=\"font-size: 48px;\">+</p>","key_press":null,"Name":"fixation","trial_type":"html-keyboard-response","trial_index":149,"time_elapsed":366364,"internal_node_id":"0.0-149.0","participant_id":"ASP32QB28TEZU"},{"rt":null,"stimulus":"stimuli/40.jpg","button_pressed":null,"name":"noRating","trial_type":"image-button-response","trial_index":150,"time_elapsed":371365,"internal_node_id":"0.0-150.0","participant_id":"ASP32QB28TEZU"},{"rt":1288,"stimulus":"stimuli/40.jpg","button_pressed":"0","name":"valence","trial_type":"image-button-response","trial_index":151,"time_elapsed":372653,"internal_node_id":"0.0-151.0","participant_id":"ASP32QB28TEZU"},{"rt":2443,"response":"100","name":"rating","trial_type":"image-slider-response","trial_index":152,"time_elapsed":375097,"internal_node_id":"0.0-152.0","participant_id":"ASP32QB28TEZU"},{"rt":777,"stimulus":"stimuli/40.jpg","button_pressed":"1","name":"emotionType","trial_type":"image-button-response","trial_index":153,"time_elapsed":375875,"internal_node_id":"0.0-153.0","participant_id":"ASP32QB28TEZU"},{"rt":null,"stimulus":"<p style=\"font-size: 48px;\">+</p>","key_press":null,"Name":"fixation","trial_type":"html-keyboard-response","trial_index":154,"time_elapsed":376877,"internal_node_id":"0.0-154.0","participant_id":"ASP32QB28TEZU"},{"rt":null,"stimulus":"stimuli/39.jpg","button_pressed":null,"name":"noRating","trial_type":"image-button-response","trial_index":155,"time_elapsed":381877,"internal_node_id":"0.0-155.0","participant_id":"ASP32QB28TEZU"},{"rt":987,"stimulus":"stimuli/39.jpg","button_pressed":"0","name":"valence","trial_type":"image-button-response","trial_index":156,"time_elapsed":382865,"internal_node_id":"0.0-156.0","participant_id":"ASP32QB28TEZU"},{"rt":1909,"response":"100","name":"rating","trial_type":"image-slider-response","trial_index":157,"time_elapsed":384775,"internal_node_id":"0.0-157.0","participant_id":"ASP32QB28TEZU"},{"rt":947,"stimulus":"stimuli/39.jpg","button_pressed":"0","name":"emotionType","trial_type":"image-button-response","trial_index":158,"time_elapsed":385723,"internal_node_id":"0.0-158.0","participant_id":"ASP32QB28TEZU"},{"rt":null,"stimulus":"<p style=\"font-size: 48px;\">+</p>","key_press":null,"Name":"fixation","trial_type":"html-keyboard-response","trial_index":159,"time_elapsed":387224,"internal_node_id":"0.0-159.0","participant_id":"ASP32QB28TEZU"},{"rt":null,"stimulus":"stimuli/20.jpg","button_pressed":null,"name":"noRating","trial_type":"image-button-response","trial_index":160,"time_elapsed":392226,"internal_node_id":"0.0-160.0","participant_id":"ASP32QB28TEZU"},{"rt":717,"stimulus":"stimuli/20.jpg","button_pressed":"0","name":"valence","trial_type":"image-button-response","trial_index":161,"time_elapsed":392943,"internal_node_id":"0.0-161.0","participant_id":"ASP32QB28TEZU"},{"rt":2178,"response":"100","name":"rating","trial_type":"image-slider-response","trial_index":162,"time_elapsed":395123,"internal_node_id":"0.0-162.0","participant_id":"ASP32QB28TEZU"},{"rt":624,"stimulus":"stimuli/20.jpg","button_pressed":"1","name":"emotionType","trial_type":"image-button-response","trial_index":163,"time_elapsed":395747,"internal_node_id":"0.0-163.0","participant_id":"ASP32QB28TEZU"},{"rt":4406,"stimulus":"stimuli/ins/Slide8.JPG","button_pressed":"0","trial_type":"image-button-response","trial_index":164,"time_elapsed":400155,"internal_node_id":"0.0-164.0","participant_id":"ASP32QB28TEZU"}]