[{"rt":7927,"responses":"{\"Q0\":\"AT0COJ1G23ZB0\"}","trial_type":"survey-text","trial_index":0,"time_elapsed":7929,"internal_node_id":"0.0-0.0-0.0","participant_id":"AT0COJ1G23ZB0"},{"rt":2942,"stimulus":"stimuli/ins/Slide1.JPG","button_pressed":"0","Name":"instructions","trial_type":"image-button-response","trial_index":1,"time_elapsed":10873,"internal_node_id":"0.0-1.0","participant_id":"AT0COJ1G23ZB0"},{"rt":1239,"stimulus":"stimuli/ins/Slide2.JPG","button_pressed":"0","Name":"instructions","trial_type":"image-button-response","trial_index":2,"time_elapsed":12113,"internal_node_id":"0.0-2.0","participant_id":"AT0COJ1G23ZB0"},{"rt":1463,"stimulus":"stimuli/ins/Slide3.JPG","button_pressed":"0","Name":"instructions","trial_type":"image-button-response","trial_index":3,"time_elapsed":13577,"internal_node_id":"0.0-3.0","participant_id":"AT0COJ1G23ZB0"},{"rt":2679,"stimulus":"stimuli/ins/Slide4.JPG","button_pressed":"0","Name":"instructions","trial_type":"image-button-response","trial_index":4,"time_elapsed":16257,"internal_node_id":"0.0-4.0","participant_id":"AT0COJ1G23ZB0"},{"rt":1391,"stimulus":"stimuli/ins/Slide5.JPG","button_pressed":"0","Name":"instructions","trial_type":"image-button-response","trial_index":5,"time_elapsed":17649,"internal_node_id":"0.0-5.0","participant_id":"AT0COJ1G23ZB0"},{"rt":1319,"stimulus":"stimuli/ins/Slide6.JPG","button_pressed":"0","Name":"instructions","trial_type":"image-button-response","trial_index":6,"time_elapsed":18968,"internal_node_id":"0.0-6.0","participant_id":"AT0COJ1G23ZB0"},{"rt":679,"stimulus":"stimuli/ins/Slide7.JPG","button_pressed":"0","Name":"instructions","trial_type":"image-button-response","trial_index":7,"time_elapsed":19649,"internal_node_id":"0.0-7.0","participant_id":"AT0COJ1G23ZB0"},{"rt":4391,"responses":"{\"Q0\":\"but\"}","trial_type":"survey-text","trial_index":8,"time_elapsed":24040,"internal_node_id":"0.0-8.0-0.0","participant_id":"AT0COJ1G23ZB0"},{"rt":null,"stimulus":"<p style=\"font-size: 48px;\">+</p>","key_press":null,"Name":"fixation","trial_type":"html-keyboard-response","trial_index":9,"time_elapsed":25543,"internal_node_id":"0.0-9.0","participant_id":"AT0COJ1G23ZB0"},{"rt":null,"stimulus":"stimuli/13.jpg","button_pressed":null,"name":"noRating","trial_type":"image-button-response","trial_index":10,"time_elapsed":30546,"internal_node_id":"0.0-10.0","participant_id":"AT0COJ1G23ZB0"},{"rt":1294,"stimulus":"stimuli/13.jpg","button_pressed":"0","name":"valence","trial_type":"image-button-response","trial_index":11,"time_elapsed":31841,"internal_node_id":"0.0-11.0","participant_id":"AT0COJ1G23ZB0"},{"rt":1462,"response":"20","name":"rating","trial_type":"image-slider-response","trial_index":12,"time_elapsed":33305,"internal_node_id":"0.0-12.0","participant_id":"AT0COJ1G23ZB0"},{"rt":2342,"stimulus":"stimuli/13.jpg","button_pressed":"0","name":"emotionType","trial_type":"image-button-response","trial_index":13,"time_elapsed":35649,"internal_node_id":"0.0-13.0","participant_id":"AT0COJ1G23ZB0"},{"rt":null,"stimulus":"<p style=\"font-size: 48px;\">+</p>","key_press":null,"Name":"fixation","trial_type":"html-keyboard-response","trial_index":14,"time_elapsed":36650,"internal_node_id":"0.0-14.0","participant_id":"AT0COJ1G23ZB0"},{"rt":null,"stimulus":"stimuli/51.jpg","button_pressed":null,"name":"noRating","trial_type":"image-button-response","trial_index":15,"time_elapsed":41652,"internal_node_id":"0.0-15.0","participant_id":"AT0COJ1G23ZB0"},{"rt":939,"stimulus":"stimuli/51.jpg","button_pressed":"0","name":"valence","trial_type":"image-button-response","trial_index":16,"time_elapsed":42593,"internal_node_id":"0.0-16.0","participant_id":"AT0COJ1G23ZB0"},{"rt":2479,"response":"62","name":"rating","trial_type":"image-slider-response","trial_index":17,"time_elapsed":45073,"internal_node_id":"0.0-17.0","participant_id":"AT0COJ1G23ZB0"},{"rt":727,"stimulus":"stimuli/51.jpg","button_pressed":"1","name":"emotionType","trial_type":"image-button-response","trial_index":18,"time_elapsed":45801,"internal_node_id":"0.0-18.0","participant_id":"AT0COJ1G23ZB0"},{"rt":null,"stimulus":"<p style=\"font-size: 48px;\">+</p>","key_press":null,"Name":"fixation","trial_type":"html-keyboard-response","trial_index":19,"time_elapsed":46803,"internal_node_id":"0.0-19.0","participant_id":"AT0COJ1G23ZB0"},{"rt":null,"stimulus":"stimuli/24.jpg","button_pressed":null,"name":"noRating","trial_type":"image-button-response","trial_index":20,"time_elapsed":51804,"internal_node_id":"0.0-20.0","participant_id":"AT0COJ1G23ZB0"},{"rt":1580,"stimulus":"stimuli/24.jpg","button_pressed":"0","name":"valence","trial_type":"image-button-response","trial_index":21,"time_elapsed":53385,"internal_node_id":"0.0-21.0","participant_id":"AT0COJ1G23ZB0"},{"rt":2392,"response":"72","name":"rating","trial_type":"image-slider-response","trial_index":22,"time_elapsed":55777,"internal_node_id":"0.0-22.0","participant_id":"AT0COJ1G23ZB0"},{"rt":640,"stimulus":"stimuli/24.jpg","button_pressed":"1","name":"emotionType","trial_type":"image-button-response","trial_index":23,"time_elapsed":56417,"internal_node_id":"0.0-23.0","participant_id":"AT0COJ1G23ZB0"},{"rt":null,"stimulus":"<p style=\"font-size: 48px;\">+</p>","key_press":null,"Name":"fixation","trial_type":"html-keyboard-response","trial_index":24,"time_elapsed":57919,"internal_node_id":"0.0-24.0","participant_id":"AT0COJ1G23ZB0"},{"rt":null,"stimulus":"stimuli/46.jpg","button_pressed":null,"name":"noRating","trial_type":"image-button-response","trial_index":25,"time_elapsed":62920,"internal_node_id":"0.0-25.0","participant_id":"AT0COJ1G23ZB0"},{"rt":856,"stimulus":"stimuli/46.jpg","button_pressed":"0","name":"valence","trial_type":"image-button-response","trial_index":26,"time_elapsed":63777,"internal_node_id":"0.0-26.0","participant_id":"AT0COJ1G23ZB0"},{"rt":1951,"response":"33","name":"rating","trial_type":"image-slider-response","trial_index":27,"time_elapsed":65729,"internal_node_id":"0.0-27.0","participant_id":"AT0COJ1G23ZB0"},{"rt":991,"stimulus":"stimuli/46.jpg","button_pressed":"0","name":"emotionType","trial_type":"image-button-response","trial_index":28,"time_elapsed":66721,"internal_node_id":"0.0-28.0","participant_id":"AT0COJ1G23ZB0"},{"rt":null,"stimulus":"<p style=\"font-size: 48px;\">+</p>","key_press":null,"Name":"fixation","trial_type":"html-keyboard-response","trial_index":29,"time_elapsed":67723,"internal_node_id":"0.0-29.0","participant_id":"AT0COJ1G23ZB0"},{"rt":null,"stimulus":"stimuli/6.jpg","button_pressed":null,"name":"noRating","trial_type":"image-button-response","trial_index":30,"time_elapsed":72725,"internal_node_id":"0.0-30.0","participant_id":"AT0COJ1G23ZB0"},{"rt":611,"stimulus":"stimuli/6.jpg","button_pressed":"0","name":"valence","trial_type":"image-button-response","trial_index":31,"time_elapsed":73337,"internal_node_id":"0.0-31.0","participant_id":"AT0COJ1G23ZB0"},{"rt":2079,"response":"23","name":"rating","trial_type":"image-slider-response","trial_index":32,"time_elapsed":75417,"internal_node_id":"0.0-32.0","participant_id":"AT0COJ1G23ZB0"},{"rt":799,"stimulus":"stimuli/6.jpg","button_pressed":"0","name":"emotionType","trial_type":"image-button-response","trial_index":33,"time_elapsed":76217,"internal_node_id":"0.0-33.0","participant_id":"AT0COJ1G23ZB0"},{"rt":3711,"responses":"{\"Q0\":\"rock\"}","trial_type":"survey-text","trial_index":34,"time_elapsed":79928,"internal_node_id":"0.0-34.0-0.0","participant_id":"AT0COJ1G23ZB0"},{"rt":null,"stimulus":"<p style=\"font-size: 48px;\">+</p>","key_press":null,"Name":"fixation","trial_type":"html-keyboard-response","trial_index":35,"time_elapsed":81430,"internal_node_id":"0.0-35.0","participant_id":"AT0COJ1G23ZB0"},{"rt":null,"stimulus":"stimuli/49.jpg","button_pressed":null,"name":"noRating","trial_type":"image-button-response","trial_index":36,"time_elapsed":86431,"internal_node_id":"0.0-36.0","participant_id":"AT0COJ1G23ZB0"},{"rt":1488,"stimulus":"stimuli/49.jpg","button_pressed":"0","name":"valence","trial_type":"image-button-response","trial_index":37,"time_elapsed":87921,"internal_node_id":"0.0-37.0","participant_id":"AT0COJ1G23ZB0"},{"rt":1055,"response":"57","name":"rating","trial_type":"image-slider-response","trial_index":38,"time_elapsed":88977,"internal_node_id":"0.0-38.0","participant_id":"AT0COJ1G23ZB0"},{"rt":1215,"stimulus":"stimuli/49.jpg","button_pressed":"0","name":"emotionType","trial_type":"image-button-response","trial_index":39,"time_elapsed":90193,"internal_node_id":"0.0-39.0","participant_id":"AT0COJ1G23ZB0"},{"rt":null,"stimulus":"<p style=\"font-size: 48px;\">+</p>","key_press":null,"Name":"fixation","trial_type":"html-keyboard-response","trial_index":40,"time_elapsed":91195,"internal_node_id":"0.0-40.0","participant_id":"AT0COJ1G23ZB0"},{"rt":null,"stimulus":"stimuli/66.jpg","button_pressed":null,"name":"noRating","trial_type":"image-button-response","trial_index":41,"time_elapsed":96197,"internal_node_id":"0.0-41.0","participant_id":"AT0COJ1G23ZB0"},{"rt":978,"stimulus":"stimuli/66.jpg","button_pressed":"0","name":"valence","trial_type":"image-button-response","trial_index":42,"time_elapsed":97177,"internal_node_id":"0.0-42.0","participant_id":"AT0COJ1G23ZB0"},{"rt":1624,"response":"42","name":"rating","trial_type":"image-slider-response","trial_index":43,"time_elapsed":98801,"internal_node_id":"0.0-43.0","participant_id":"AT0COJ1G23ZB0"},{"rt":535,"stimulus":"stimuli/66.jpg","button_pressed":"0","name":"emotionType","trial_type":"image-button-response","trial_index":44,"time_elapsed":99337,"internal_node_id":"0.0-44.0","participant_id":"AT0COJ1G23ZB0"},{"rt":null,"stimulus":"<p style=\"font-size: 48px;\">+</p>","key_press":null,"Name":"fixation","trial_type":"html-keyboard-response","trial_index":45,"time_elapsed":99838,"internal_node_id":"0.0-45.0","participant_id":"AT0COJ1G23ZB0"},{"rt":null,"stimulus":"stimuli/36.jpg","button_pressed":null,"name":"noRating","trial_type":"image-button-response","trial_index":46,"time_elapsed":104841,"internal_node_id":"0.0-46.0","participant_id":"AT0COJ1G23ZB0"},{"rt":870,"stimulus":"stimuli/36.jpg","button_pressed":"0","name":"valence","trial_type":"image-button-response","trial_index":47,"time_elapsed":105713,"internal_node_id":"0.0-47.0","participant_id":"AT0COJ1G23ZB0"},{"rt":1912,"response":"26","name":"rating","trial_type":"image-slider-response","trial_index":48,"time_elapsed":107625,"internal_node_id":"0.0-48.0","participant_id":"AT0COJ1G23ZB0"},{"rt":807,"stimulus":"stimuli/36.jpg","button_pressed":"0","name":"emotionType","trial_type":"image-button-response","trial_index":49,"time_elapsed":108433,"internal_node_id":"0.0-49.0","participant_id":"AT0COJ1G23ZB0"},{"rt":null,"stimulus":"<p style=\"font-size: 48px;\">+</p>","key_press":null,"Name":"fixation","trial_type":"html-keyboard-response","trial_index":50,"time_elapsed":108934,"internal_node_id":"0.0-50.0","participant_id":"AT0COJ1G23ZB0"},{"rt":null,"stimulus":"stimuli/30.jpg","button_pressed":null,"name":"noRating","trial_type":"image-button-response","trial_index":51,"time_elapsed":113936,"internal_node_id":"0.0-51.0","participant_id":"AT0COJ1G23ZB0"},{"rt":975,"stimulus":"stimuli/30.jpg","button_pressed":"0","name":"valence","trial_type":"image-button-response","trial_index":52,"time_elapsed":114913,"internal_node_id":"0.0-52.0","participant_id":"AT0COJ1G23ZB0"},{"rt":1639,"response":"28","name":"rating","trial_type":"image-slider-response","trial_index":53,"time_elapsed":116552,"internal_node_id":"0.0-53.0","participant_id":"AT0COJ1G23ZB0"},{"rt":807,"stimulus":"stimuli/30.jpg","button_pressed":"0","name":"emotionType","trial_type":"image-button-response","trial_index":54,"time_elapsed":117361,"internal_node_id":"0.0-54.0","participant_id":"AT0COJ1G23ZB0"},{"rt":null,"stimulus":"<p style=\"font-size: 48px;\">+</p>","key_press":null,"Name":"fixation","trial_type":"html-keyboard-response","trial_index":55,"time_elapsed":118363,"internal_node_id":"0.0-55.0","participant_id":"AT0COJ1G23ZB0"},{"rt":null,"stimulus":"stimuli/18.jpg","button_pressed":null,"name":"noRating","trial_type":"image-button-response","trial_index":56,"time_elapsed":123365,"internal_node_id":"0.0-56.0","participant_id":"AT0COJ1G23ZB0"},{"rt":1050,"stimulus":"stimuli/18.jpg","button_pressed":"0","name":"valence","trial_type":"image-button-response","trial_index":57,"time_elapsed":124416,"internal_node_id":"0.0-57.0","participant_id":"AT0COJ1G23ZB0"},{"rt":1455,"response":"29","name":"rating","trial_type":"image-slider-response","trial_index":58,"time_elapsed":125872,"internal_node_id":"0.0-58.0","participant_id":"AT0COJ1G23ZB0"},{"rt":863,"stimulus":"stimuli/18.jpg","button_pressed":"0","name":"emotionType","trial_type":"image-button-response","trial_index":59,"time_elapsed":126737,"internal_node_id":"0.0-59.0","participant_id":"AT0COJ1G23ZB0"},{"rt":3335,"responses":"{\"Q0\":\"sky\"}","trial_type":"survey-text","trial_index":60,"time_elapsed":130072,"internal_node_id":"0.0-60.0-0.0","participant_id":"AT0COJ1G23ZB0"},{"rt":null,"stimulus":"<p style=\"font-size: 48px;\">+</p>","key_press":null,"Name":"fixation","trial_type":"html-keyboard-response","trial_index":61,"time_elapsed":131573,"internal_node_id":"0.0-61.0","participant_id":"AT0COJ1G23ZB0"},{"rt":null,"stimulus":"stimuli/7.jpg","button_pressed":null,"name":"noRating","trial_type":"image-button-response","trial_index":62,"time_elapsed":136575,"internal_node_id":"0.0-62.0","participant_id":"AT0COJ1G23ZB0"},{"rt":992,"stimulus":"stimuli/7.jpg","button_pressed":"0","name":"valence","trial_type":"image-button-response","trial_index":63,"time_elapsed":137568,"internal_node_id":"0.0-63.0","participant_id":"AT0COJ1G23ZB0"},{"rt":1871,"response":"32","name":"rating","trial_type":"image-slider-response","trial_index":64,"time_elapsed":139441,"internal_node_id":"0.0-64.0","participant_id":"AT0COJ1G23ZB0"},{"rt":615,"stimulus":"stimuli/7.jpg","button_pressed":"0","name":"emotionType","trial_type":"image-button-response","trial_index":65,"time_elapsed":140056,"internal_node_id":"0.0-65.0","participant_id":"AT0COJ1G23ZB0"},{"rt":null,"stimulus":"<p style=\"font-size: 48px;\">+</p>","key_press":null,"Name":"fixation","trial_type":"html-keyboard-response","trial_index":66,"time_elapsed":141059,"internal_node_id":"0.0-66.0","participant_id":"AT0COJ1G23ZB0"},{"rt":null,"stimulus":"stimuli/33.jpg","button_pressed":null,"name":"noRating","trial_type":"image-button-response","trial_index":67,"time_elapsed":146061,"internal_node_id":"0.0-67.0","participant_id":"AT0COJ1G23ZB0"},{"rt":615,"stimulus":"stimuli/33.jpg","button_pressed":"0","name":"valence","trial_type":"image-button-response","trial_index":68,"time_elapsed":146680,"internal_node_id":"0.0-68.0","participant_id":"AT0COJ1G23ZB0"},{"rt":2023,"response":"38","name":"rating","trial_type":"image-slider-response","trial_index":69,"time_elapsed":148704,"internal_node_id":"0.0-69.0","participant_id":"AT0COJ1G23ZB0"},{"rt":679,"stimulus":"stimuli/33.jpg","button_pressed":"0","name":"emotionType","trial_type":"image-button-response","trial_index":70,"time_elapsed":149384,"internal_node_id":"0.0-70.0","participant_id":"AT0COJ1G23ZB0"},{"rt":null,"stimulus":"<p style=\"font-size: 48px;\">+</p>","key_press":null,"Name":"fixation","trial_type":"html-keyboard-response","trial_index":71,"time_elapsed":149886,"internal_node_id":"0.0-71.0","participant_id":"AT0COJ1G23ZB0"},{"rt":null,"stimulus":"stimuli/9.jpg","button_pressed":null,"name":"noRating","trial_type":"image-button-response","trial_index":72,"time_elapsed":154887,"internal_node_id":"0.0-72.0","participant_id":"AT0COJ1G23ZB0"},{"rt":944,"stimulus":"stimuli/9.jpg","button_pressed":"0","name":"valence","trial_type":"image-button-response","trial_index":73,"time_elapsed":155832,"internal_node_id":"0.0-73.0","participant_id":"AT0COJ1G23ZB0"},{"rt":1215,"response":"50","name":"rating","trial_type":"image-slider-response","trial_index":74,"time_elapsed":157048,"internal_node_id":"0.0-74.0","participant_id":"AT0COJ1G23ZB0"},{"rt":831,"stimulus":"stimuli/9.jpg","button_pressed":"1","name":"emotionType","trial_type":"image-button-response","trial_index":75,"time_elapsed":157880,"internal_node_id":"0.0-75.0","participant_id":"AT0COJ1G23ZB0"},{"rt":null,"stimulus":"<p style=\"font-size: 48px;\">+</p>","key_press":null,"Name":"fixation","trial_type":"html-keyboard-response","trial_index":76,"time_elapsed":158383,"internal_node_id":"0.0-76.0","participant_id":"AT0COJ1G23ZB0"},{"rt":null,"stimulus":"stimuli/34.jpg","button_pressed":null,"name":"noRating","trial_type":"image-button-response","trial_index":77,"time_elapsed":163385,"internal_node_id":"0.0-77.0","participant_id":"AT0COJ1G23ZB0"},{"rt":630,"stimulus":"stimuli/34.jpg","button_pressed":"0","name":"valence","trial_type":"image-button-response","trial_index":78,"time_elapsed":164016,"internal_node_id":"0.0-78.0","participant_id":"AT0COJ1G23ZB0"},{"rt":1431,"response":"46","name":"rating","trial_type":"image-slider-response","trial_index":79,"time_elapsed":165448,"internal_node_id":"0.0-79.0","participant_id":"AT0COJ1G23ZB0"},{"rt":815,"stimulus":"stimuli/34.jpg","button_pressed":"0","name":"emotionType","trial_type":"image-button-response","trial_index":80,"time_elapsed":166264,"internal_node_id":"0.0-80.0","participant_id":"AT0COJ1G23ZB0"},{"rt":null,"stimulus":"<p style=\"font-size: 48px;\">+</p>","key_press":null,"Name":"fixation","trial_type":"html-keyboard-response","trial_index":81,"time_elapsed":166765,"internal_node_id":"0.0-81.0","participant_id":"AT0COJ1G23ZB0"},{"rt":null,"stimulus":"stimuli/1.jpg","button_pressed":null,"name":"noRating","trial_type":"image-button-response","trial_index":82,"time_elapsed":171767,"internal_node_id":"0.0-82.0","participant_id":"AT0COJ1G23ZB0"},{"rt":1088,"stimulus":"stimuli/1.jpg","button_pressed":"0","name":"valence","trial_type":"image-button-response","trial_index":83,"time_elapsed":172856,"internal_node_id":"0.0-83.0","participant_id":"AT0COJ1G23ZB0"},{"rt":1143,"response":"22","name":"rating","trial_type":"image-slider-response","trial_index":84,"time_elapsed":174000,"internal_node_id":"0.0-84.0","participant_id":"AT0COJ1G23ZB0"},{"rt":775,"stimulus":"stimuli/1.jpg","button_pressed":"0","name":"emotionType","trial_type":"image-button-response","trial_index":85,"time_elapsed":174776,"internal_node_id":"0.0-85.0","participant_id":"AT0COJ1G23ZB0"},{"rt":3319,"responses":"{\"Q0\":\"our\"}","trial_type":"survey-text","trial_index":86,"time_elapsed":178096,"internal_node_id":"0.0-86.0-0.0","participant_id":"AT0COJ1G23ZB0"},{"rt":null,"stimulus":"<p style=\"font-size: 48px;\">+</p>","key_press":null,"Name":"fixation","trial_type":"html-keyboard-response","trial_index":87,"time_elapsed":179098,"internal_node_id":"0.0-87.0","participant_id":"AT0COJ1G23ZB0"},{"rt":null,"stimulus":"stimuli/4.jpg","button_pressed":null,"name":"noRating","trial_type":"image-button-response","trial_index":88,"time_elapsed":184099,"internal_node_id":"0.0-88.0","participant_id":"AT0COJ1G23ZB0"},{"rt":1196,"stimulus":"stimuli/4.jpg","button_pressed":"0","name":"valence","trial_type":"image-button-response","trial_index":89,"time_elapsed":185296,"internal_node_id":"0.0-89.0","participant_id":"AT0COJ1G23ZB0"},{"rt":1776,"response":"25","name":"rating","trial_type":"image-slider-response","trial_index":90,"time_elapsed":187072,"internal_node_id":"0.0-90.0","participant_id":"AT0COJ1G23ZB0"},{"rt":871,"stimulus":"stimuli/4.jpg","button_pressed":"0","name":"emotionType","trial_type":"image-button-response","trial_index":91,"time_elapsed":187944,"internal_node_id":"0.0-91.0","participant_id":"AT0COJ1G23ZB0"},{"rt":null,"stimulus":"<p style=\"font-size: 48px;\">+</p>","key_press":null,"Name":"fixation","trial_type":"html-keyboard-response","trial_index":92,"time_elapsed":189445,"internal_node_id":"0.0-92.0","participant_id":"AT0COJ1G23ZB0"},{"rt":null,"stimulus":"stimuli/61.jpg","button_pressed":null,"name":"noRating","trial_type":"image-button-response","trial_index":93,"time_elapsed":194448,"internal_node_id":"0.0-93.0","participant_id":"AT0COJ1G23ZB0"},{"rt":727,"stimulus":"stimuli/61.jpg","button_pressed":"0","name":"valence","trial_type":"image-button-response","trial_index":94,"time_elapsed":195176,"internal_node_id":"0.0-94.0","participant_id":"AT0COJ1G23ZB0"},{"rt":1519,"response":"22","name":"rating","trial_type":"image-slider-response","trial_index":95,"time_elapsed":196696,"internal_node_id":"0.0-95.0","participant_id":"AT0COJ1G23ZB0"},{"rt":783,"stimulus":"stimuli/61.jpg","button_pressed":"0","name":"emotionType","trial_type":"image-button-response","trial_index":96,"time_elapsed":197480,"internal_node_id":"0.0-96.0","participant_id":"AT0COJ1G23ZB0"},{"rt":null,"stimulus":"<p style=\"font-size: 48px;\">+</p>","key_press":null,"Name":"fixation","trial_type":"html-keyboard-response","trial_index":97,"time_elapsed":198983,"internal_node_id":"0.0-97.0","participant_id":"AT0COJ1G23ZB0"},{"rt":null,"stimulus":"stimuli/12.jpg","button_pressed":null,"name":"noRating","trial_type":"image-button-response","trial_index":98,"time_elapsed":203983,"internal_node_id":"0.0-98.0","participant_id":"AT0COJ1G23ZB0"},{"rt":872,"stimulus":"stimuli/12.jpg","button_pressed":"0","name":"valence","trial_type":"image-button-response","trial_index":99,"time_elapsed":204856,"internal_node_id":"0.0-99.0","participant_id":"AT0COJ1G23ZB0"},{"rt":1287,"response":"9","name":"rating","trial_type":"image-slider-response","trial_index":100,"time_elapsed":206144,"internal_node_id":"0.0-100.0","participant_id":"AT0COJ1G23ZB0"},{"rt":775,"stimulus":"stimuli/12.jpg","button_pressed":"0","name":"emotionType","trial_type":"image-button-response","trial_index":101,"time_elapsed":206920,"internal_node_id":"0.0-101.0","participant_id":"AT0COJ1G23ZB0"},{"rt":null,"stimulus":"<p style=\"font-size: 48px;\">+</p>","key_press":null,"Name":"fixation","trial_type":"html-keyboard-response","trial_index":102,"time_elapsed":207423,"internal_node_id":"0.0-102.0","participant_id":"AT0COJ1G23ZB0"},{"rt":null,"stimulus":"stimuli/42.jpg","button_pressed":null,"name":"noRating","trial_type":"image-button-response","trial_index":103,"time_elapsed":212424,"internal_node_id":"0.0-103.0","participant_id":"AT0COJ1G23ZB0"},{"rt":912,"stimulus":"stimuli/42.jpg","button_pressed":"0","name":"valence","trial_type":"image-button-response","trial_index":104,"time_elapsed":213336,"internal_node_id":"0.0-104.0","participant_id":"AT0COJ1G23ZB0"},{"rt":1199,"response":"48","name":"rating","trial_type":"image-slider-response","trial_index":105,"time_elapsed":214536,"internal_node_id":"0.0-105.0","participant_id":"AT0COJ1G23ZB0"},{"rt":1191,"stimulus":"stimuli/42.jpg","button_pressed":"0","name":"emotionType","trial_type":"image-button-response","trial_index":106,"time_elapsed":215728,"internal_node_id":"0.0-106.0","participant_id":"AT0COJ1G23ZB0"},{"rt":null,"stimulus":"<p style=\"font-size: 48px;\">+</p>","key_press":null,"Name":"fixation","trial_type":"html-keyboard-response","trial_index":107,"time_elapsed":216730,"internal_node_id":"0.0-107.0","participant_id":"AT0COJ1G23ZB0"},{"rt":null,"stimulus":"stimuli/19.jpg","button_pressed":null,"name":"noRating","trial_type":"image-button-response","trial_index":108,"time_elapsed":221733,"internal_node_id":"0.0-108.0","participant_id":"AT0COJ1G23ZB0"},{"rt":1226,"stimulus":"stimuli/19.jpg","button_pressed":"0","name":"valence","trial_type":"image-button-response","trial_index":109,"time_elapsed":222960,"internal_node_id":"0.0-109.0","participant_id":"AT0COJ1G23ZB0"},{"rt":2135,"response":"54","name":"rating","trial_type":"image-slider-response","trial_index":110,"time_elapsed":225096,"internal_node_id":"0.0-110.0","participant_id":"AT0COJ1G23ZB0"},{"rt":631,"stimulus":"stimuli/19.jpg","button_pressed":"1","name":"emotionType","trial_type":"image-button-response","trial_index":111,"time_elapsed":225728,"internal_node_id":"0.0-111.0","participant_id":"AT0COJ1G23ZB0"},{"rt":3279,"responses":"{\"Q0\":\"course\"}","trial_type":"survey-text","trial_index":112,"time_elapsed":229008,"internal_node_id":"0.0-112.0-0.0","participant_id":"AT0COJ1G23ZB0"},{"rt":null,"stimulus":"<p style=\"font-size: 48px;\">+</p>","key_press":null,"Name":"fixation","trial_type":"html-keyboard-response","trial_index":113,"time_elapsed":229509,"internal_node_id":"0.0-113.0","participant_id":"AT0COJ1G23ZB0"},{"rt":null,"stimulus":"stimuli/10.jpg","button_pressed":null,"name":"noRating","trial_type":"image-button-response","trial_index":114,"time_elapsed":234511,"internal_node_id":"0.0-114.0","participant_id":"AT0COJ1G23ZB0"},{"rt":1544,"stimulus":"stimuli/10.jpg","button_pressed":"0","name":"valence","trial_type":"image-button-response","trial_index":115,"time_elapsed":236056,"internal_node_id":"0.0-115.0","participant_id":"AT0COJ1G23ZB0"},{"rt":1271,"response":"27","name":"rating","trial_type":"image-slider-response","trial_index":116,"time_elapsed":237328,"internal_node_id":"0.0-116.0","participant_id":"AT0COJ1G23ZB0"},{"rt":679,"stimulus":"stimuli/10.jpg","button_pressed":"0","name":"emotionType","trial_type":"image-button-response","trial_index":117,"time_elapsed":238008,"internal_node_id":"0.0-117.0","participant_id":"AT0COJ1G23ZB0"},{"rt":null,"stimulus":"<p style=\"font-size: 48px;\">+</p>","key_press":null,"Name":"fixation","trial_type":"html-keyboard-response","trial_index":118,"time_elapsed":238509,"internal_node_id":"0.0-118.0","participant_id":"AT0COJ1G23ZB0"},{"rt":null,"stimulus":"stimuli/47.jpg","button_pressed":null,"name":"noRating","trial_type":"image-button-response","trial_index":119,"time_elapsed":243512,"internal_node_id":"0.0-119.0","participant_id":"AT0COJ1G23ZB0"},{"rt":935,"stimulus":"stimuli/47.jpg","button_pressed":"0","name":"valence","trial_type":"image-button-response","trial_index":120,"time_elapsed":244448,"internal_node_id":"0.0-120.0","participant_id":"AT0COJ1G23ZB0"},{"rt":2151,"response":"23","name":"rating","trial_type":"image-slider-response","trial_index":121,"time_elapsed":246600,"internal_node_id":"0.0-121.0","participant_id":"AT0COJ1G23ZB0"},{"rt":1855,"stimulus":"stimuli/47.jpg","button_pressed":"0","name":"emotionType","trial_type":"image-button-response","trial_index":122,"time_elapsed":248456,"internal_node_id":"0.0-122.0","participant_id":"AT0COJ1G23ZB0"},{"rt":null,"stimulus":"<p style=\"font-size: 48px;\">+</p>","key_press":null,"Name":"fixation","trial_type":"html-keyboard-response","trial_index":123,"time_elapsed":249457,"internal_node_id":"0.0-123.0","participant_id":"AT0COJ1G23ZB0"},{"rt":null,"stimulus":"stimuli/59.jpg","button_pressed":null,"name":"noRating","trial_type":"image-button-response","trial_index":124,"time_elapsed":254460,"internal_node_id":"0.0-124.0","participant_id":"AT0COJ1G23ZB0"},{"rt":4131,"stimulus":"stimuli/59.jpg","button_pressed":"0","name":"valence","trial_type":"image-button-response","trial_index":125,"time_elapsed":258592,"internal_node_id":"0.0-125.0","participant_id":"AT0COJ1G23ZB0"},{"rt":1863,"response":"45","name":"rating","trial_type":"image-slider-response","trial_index":126,"time_elapsed":260456,"internal_node_id":"0.0-126.0","participant_id":"AT0COJ1G23ZB0"},{"rt":1559,"stimulus":"stimuli/59.jpg","button_pressed":"0","name":"emotionType","trial_type":"image-button-response","trial_index":127,"time_elapsed":262016,"internal_node_id":"0.0-127.0","participant_id":"AT0COJ1G23ZB0"},{"rt":null,"stimulus":"<p style=\"font-size: 48px;\">+</p>","key_press":null,"Name":"fixation","trial_type":"html-keyboard-response","trial_index":128,"time_elapsed":263018,"internal_node_id":"0.0-128.0","participant_id":"AT0COJ1G23ZB0"},{"rt":null,"stimulus":"stimuli/63.jpg","button_pressed":null,"name":"noRating","trial_type":"image-button-response","trial_index":129,"time_elapsed":268019,"internal_node_id":"0.0-129.0","participant_id":"AT0COJ1G23ZB0"},{"rt":1668,"stimulus":"stimuli/63.jpg","button_pressed":"0","name":"valence","trial_type":"image-button-response","trial_index":130,"time_elapsed":269688,"internal_node_id":"0.0-130.0","participant_id":"AT0COJ1G23ZB0"},{"rt":1127,"response":"15","name":"rating","trial_type":"image-slider-response","trial_index":131,"time_elapsed":270816,"internal_node_id":"0.0-131.0","participant_id":"AT0COJ1G23ZB0"},{"rt":799,"stimulus":"stimuli/63.jpg","button_pressed":"0","name":"emotionType","trial_type":"image-button-response","trial_index":132,"time_elapsed":271616,"internal_node_id":"0.0-132.0","participant_id":"AT0COJ1G23ZB0"},{"rt":null,"stimulus":"<p style=\"font-size: 48px;\">+</p>","key_press":null,"Name":"fixation","trial_type":"html-keyboard-response","trial_index":133,"time_elapsed":272117,"internal_node_id":"0.0-133.0","participant_id":"AT0COJ1G23ZB0"},{"rt":null,"stimulus":"stimuli/2.jpg","button_pressed":null,"name":"noRating","trial_type":"image-button-response","trial_index":134,"time_elapsed":277119,"internal_node_id":"0.0-134.0","participant_id":"AT0COJ1G23ZB0"},{"rt":2481,"stimulus":"stimuli/2.jpg","button_pressed":"0","name":"valence","trial_type":"image-button-response","trial_index":135,"time_elapsed":279600,"internal_node_id":"0.0-135.0","participant_id":"AT0COJ1G23ZB0"},{"rt":2735,"response":"33","name":"rating","trial_type":"image-slider-response","trial_index":136,"time_elapsed":282336,"internal_node_id":"0.0-136.0","participant_id":"AT0COJ1G23ZB0"},{"rt":1191,"stimulus":"stimuli/2.jpg","button_pressed":"1","name":"emotionType","trial_type":"image-button-response","trial_index":137,"time_elapsed":283528,"internal_node_id":"0.0-137.0","participant_id":"AT0COJ1G23ZB0"},{"rt":1959,"responses":"{\"Q0\":\"we\"}","trial_type":"survey-text","trial_index":138,"time_elapsed":285488,"internal_node_id":"0.0-138.0-0.0","participant_id":"AT0COJ1G23ZB0"},{"rt":null,"stimulus":"<p style=\"font-size: 48px;\">+</p>","key_press":null,"Name":"fixation","trial_type":"html-keyboard-response","trial_index":139,"time_elapsed":286490,"internal_node_id":"0.0-139.0","participant_id":"AT0COJ1G23ZB0"},{"rt":null,"stimulus":"stimuli/31.jpg","button_pressed":null,"name":"noRating","trial_type":"image-button-response","trial_index":140,"time_elapsed":291493,"internal_node_id":"0.0-140.0","participant_id":"AT0COJ1G23ZB0"},{"rt":866,"stimulus":"stimuli/31.jpg","button_pressed":"0","name":"valence","trial_type":"image-button-response","trial_index":141,"time_elapsed":292360,"internal_node_id":"0.0-141.0","participant_id":"AT0COJ1G23ZB0"},{"rt":1303,"response":"31","name":"rating","trial_type":"image-slider-response","trial_index":142,"time_elapsed":293664,"internal_node_id":"0.0-142.0","participant_id":"AT0COJ1G23ZB0"},{"rt":783,"stimulus":"stimuli/31.jpg","button_pressed":"0","name":"emotionType","trial_type":"image-button-response","trial_index":143,"time_elapsed":294448,"internal_node_id":"0.0-143.0","participant_id":"AT0COJ1G23ZB0"},{"rt":null,"stimulus":"<p style=\"font-size: 48px;\">+</p>","key_press":null,"Name":"fixation","trial_type":"html-keyboard-response","trial_index":144,"time_elapsed":295952,"internal_node_id":"0.0-144.0","participant_id":"AT0COJ1G23ZB0"},{"rt":null,"stimulus":"stimuli/37.jpg","button_pressed":null,"name":"noRating","trial_type":"image-button-response","trial_index":145,"time_elapsed":300954,"internal_node_id":"0.0-145.0","participant_id":"AT0COJ1G23ZB0"},{"rt":655,"stimulus":"stimuli/37.jpg","button_pressed":"0","name":"valence","trial_type":"image-button-response","trial_index":146,"time_elapsed":301610,"internal_node_id":"0.0-146.0","participant_id":"AT0COJ1G23ZB0"},{"rt":1208,"response":"43","name":"rating","trial_type":"image-slider-response","trial_index":147,"time_elapsed":302818,"internal_node_id":"0.0-147.0","participant_id":"AT0COJ1G23ZB0"},{"rt":655,"stimulus":"stimuli/37.jpg","button_pressed":"0","name":"emotionType","trial_type":"image-button-response","trial_index":148,"time_elapsed":303474,"internal_node_id":"0.0-148.0","participant_id":"AT0COJ1G23ZB0"},{"rt":null,"stimulus":"<p style=\"font-size: 48px;\">+</p>","key_press":null,"Name":"fixation","trial_type":"html-keyboard-response","trial_index":149,"time_elapsed":304475,"internal_node_id":"0.0-149.0","participant_id":"AT0COJ1G23ZB0"},{"rt":null,"stimulus":"stimuli/67.jpg","button_pressed":null,"name":"noRating","trial_type":"image-button-response","trial_index":150,"time_elapsed":309476,"internal_node_id":"0.0-150.0","participant_id":"AT0COJ1G23ZB0"},{"rt":1172,"stimulus":"stimuli/67.jpg","button_pressed":"0","name":"valence","trial_type":"image-button-response","trial_index":151,"time_elapsed":310650,"internal_node_id":"0.0-151.0","participant_id":"AT0COJ1G23ZB0"},{"rt":1559,"response":"60","name":"rating","trial_type":"image-slider-response","trial_index":152,"time_elapsed":312210,"internal_node_id":"0.0-152.0","participant_id":"AT0COJ1G23ZB0"},{"rt":943,"stimulus":"stimuli/67.jpg","button_pressed":"0","name":"emotionType","trial_type":"image-button-response","trial_index":153,"time_elapsed":313154,"internal_node_id":"0.0-153.0","participant_id":"AT0COJ1G23ZB0"},{"rt":null,"stimulus":"<p style=\"font-size: 48px;\">+</p>","key_press":null,"Name":"fixation","trial_type":"html-keyboard-response","trial_index":154,"time_elapsed":314155,"internal_node_id":"0.0-154.0","participant_id":"AT0COJ1G23ZB0"},{"rt":null,"stimulus":"stimuli/53.jpg","button_pressed":null,"name":"noRating","trial_type":"image-button-response","trial_index":155,"time_elapsed":319156,"internal_node_id":"0.0-155.0","participant_id":"AT0COJ1G23ZB0"},{"rt":1179,"stimulus":"stimuli/53.jpg","button_pressed":"0","name":"valence","trial_type":"image-button-response","trial_index":156,"time_elapsed":320338,"internal_node_id":"0.0-156.0","participant_id":"AT0COJ1G23ZB0"},{"rt":2815,"response":"48","name":"rating","trial_type":"image-slider-response","trial_index":157,"time_elapsed":323154,"internal_node_id":"0.0-157.0","participant_id":"AT0COJ1G23ZB0"},{"rt":663,"stimulus":"stimuli/53.jpg","button_pressed":"1","name":"emotionType","trial_type":"image-button-response","trial_index":158,"time_elapsed":323818,"internal_node_id":"0.0-158.0","participant_id":"AT0COJ1G23ZB0"},{"rt":null,"stimulus":"<p style=\"font-size: 48px;\">+</p>","key_press":null,"Name":"fixation","trial_type":"html-keyboard-response","trial_index":159,"time_elapsed":324320,"internal_node_id":"0.0-159.0","participant_id":"AT0COJ1G23ZB0"},{"rt":null,"stimulus":"stimuli/62.jpg","button_pressed":null,"name":"noRating","trial_type":"image-button-response","trial_index":160,"time_elapsed":329323,"internal_node_id":"0.0-160.0","participant_id":"AT0COJ1G23ZB0"},{"rt":662,"stimulus":"stimuli/62.jpg","button_pressed":"0","name":"valence","trial_type":"image-button-response","trial_index":161,"time_elapsed":329986,"internal_node_id":"0.0-161.0","participant_id":"AT0COJ1G23ZB0"},{"rt":1407,"response":"39","name":"rating","trial_type":"image-slider-response","trial_index":162,"time_elapsed":331394,"internal_node_id":"0.0-162.0","participant_id":"AT0COJ1G23ZB0"},{"rt":752,"stimulus":"stimuli/62.jpg","button_pressed":"0","name":"emotionType","trial_type":"image-button-response","trial_index":163,"time_elapsed":332146,"internal_node_id":"0.0-163.0","participant_id":"AT0COJ1G23ZB0"},{"rt":2567,"stimulus":"stimuli/ins/Slide8.JPG","button_pressed":"0","trial_type":"image-button-response","trial_index":164,"time_elapsed":334714,"internal_node_id":"0.0-164.0","participant_id":"AT0COJ1G23ZB0"}]