[{"rt":6185,"responses":"{\"Q0\":\"AXY0D2AMLKE2A\"}","trial_type":"survey-text","trial_index":0,"time_elapsed":6187,"internal_node_id":"0.0-0.0-0.0","participant_id":"AXY0D2AMLKE2A"},{"rt":5656,"stimulus":"stimuli/ins/Slide1.JPG","button_pressed":"0","Name":"instructions","trial_type":"image-button-response","trial_index":1,"time_elapsed":11845,"internal_node_id":"0.0-1.0","participant_id":"AXY0D2AMLKE2A"},{"rt":13020,"stimulus":"stimuli/ins/Slide2.JPG","button_pressed":"0","Name":"instructions","trial_type":"image-button-response","trial_index":2,"time_elapsed":24865,"internal_node_id":"0.0-2.0","participant_id":"AXY0D2AMLKE2A"},{"rt":6089,"stimulus":"stimuli/ins/Slide3.JPG","button_pressed":"0","Name":"instructions","trial_type":"image-button-response","trial_index":3,"time_elapsed":30955,"internal_node_id":"0.0-3.0","participant_id":"AXY0D2AMLKE2A"},{"rt":4319,"stimulus":"stimuli/ins/Slide4.JPG","button_pressed":"0","Name":"instructions","trial_type":"image-button-response","trial_index":4,"time_elapsed":35274,"internal_node_id":"0.0-4.0","participant_id":"AXY0D2AMLKE2A"},{"rt":3613,"stimulus":"stimuli/ins/Slide5.JPG","button_pressed":"0","Name":"instructions","trial_type":"image-button-response","trial_index":5,"time_elapsed":38888,"internal_node_id":"0.0-5.0","participant_id":"AXY0D2AMLKE2A"},{"rt":2497,"stimulus":"stimuli/ins/Slide6.JPG","button_pressed":"0","Name":"instructions","trial_type":"image-button-response","trial_index":6,"time_elapsed":41386,"internal_node_id":"0.0-6.0","participant_id":"AXY0D2AMLKE2A"},{"rt":1204,"stimulus":"stimuli/ins/Slide7.JPG","button_pressed":"0","Name":"instructions","trial_type":"image-button-response","trial_index":7,"time_elapsed":42591,"internal_node_id":"0.0-7.0","participant_id":"AXY0D2AMLKE2A"},{"rt":7864,"responses":"{\"Q0\":\"but\"}","trial_type":"survey-text","trial_index":8,"time_elapsed":50456,"internal_node_id":"0.0-8.0-0.0","participant_id":"AXY0D2AMLKE2A"},{"rt":null,"stimulus":"<p style=\"font-size: 48px;\">+</p>","key_press":null,"Name":"fixation","trial_type":"html-keyboard-response","trial_index":9,"time_elapsed":51457,"internal_node_id":"0.0-9.0","participant_id":"AXY0D2AMLKE2A"},{"rt":null,"stimulus":"stimuli/64.jpg","button_pressed":null,"name":"noRating","trial_type":"image-button-response","trial_index":10,"time_elapsed":56458,"internal_node_id":"0.0-10.0","participant_id":"AXY0D2AMLKE2A"},{"rt":1448,"stimulus":"stimuli/64.jpg","button_pressed":"0","name":"valence","trial_type":"image-button-response","trial_index":11,"time_elapsed":57906,"internal_node_id":"0.0-11.0","participant_id":"AXY0D2AMLKE2A"},{"rt":6597,"response":"74","name":"rating","trial_type":"image-slider-response","trial_index":12,"time_elapsed":64504,"internal_node_id":"0.0-12.0","participant_id":"AXY0D2AMLKE2A"},{"rt":3784,"stimulus":"stimuli/64.jpg","button_pressed":"0","name":"emotionType","trial_type":"image-button-response","trial_index":13,"time_elapsed":68290,"internal_node_id":"0.0-13.0","participant_id":"AXY0D2AMLKE2A"},{"rt":null,"stimulus":"<p style=\"font-size: 48px;\">+</p>","key_press":null,"Name":"fixation","trial_type":"html-keyboard-response","trial_index":14,"time_elapsed":68792,"internal_node_id":"0.0-14.0","participant_id":"AXY0D2AMLKE2A"},{"rt":null,"stimulus":"stimuli/3.jpg","button_pressed":null,"name":"noRating","trial_type":"image-button-response","trial_index":15,"time_elapsed":73794,"internal_node_id":"0.0-15.0","participant_id":"AXY0D2AMLKE2A"},{"rt":1228,"stimulus":"stimuli/3.jpg","button_pressed":"0","name":"valence","trial_type":"image-button-response","trial_index":16,"time_elapsed":75023,"internal_node_id":"0.0-16.0","participant_id":"AXY0D2AMLKE2A"},{"rt":2909,"response":"67","name":"rating","trial_type":"image-slider-response","trial_index":17,"time_elapsed":77934,"internal_node_id":"0.0-17.0","participant_id":"AXY0D2AMLKE2A"},{"rt":2178,"stimulus":"stimuli/3.jpg","button_pressed":"0","name":"emotionType","trial_type":"image-button-response","trial_index":18,"time_elapsed":80112,"internal_node_id":"0.0-18.0","participant_id":"AXY0D2AMLKE2A"},{"rt":null,"stimulus":"<p style=\"font-size: 48px;\">+</p>","key_press":null,"Name":"fixation","trial_type":"html-keyboard-response","trial_index":19,"time_elapsed":81113,"internal_node_id":"0.0-19.0","participant_id":"AXY0D2AMLKE2A"},{"rt":null,"stimulus":"stimuli/22.jpg","button_pressed":null,"name":"noRating","trial_type":"image-button-response","trial_index":20,"time_elapsed":86113,"internal_node_id":"0.0-20.0","participant_id":"AXY0D2AMLKE2A"},{"rt":999,"stimulus":"stimuli/22.jpg","button_pressed":"0","name":"valence","trial_type":"image-button-response","trial_index":21,"time_elapsed":87114,"internal_node_id":"0.0-21.0","participant_id":"AXY0D2AMLKE2A"},{"rt":3251,"response":"77","name":"rating","trial_type":"image-slider-response","trial_index":22,"time_elapsed":90366,"internal_node_id":"0.0-22.0","participant_id":"AXY0D2AMLKE2A"},{"rt":1029,"stimulus":"stimuli/22.jpg","button_pressed":"0","name":"emotionType","trial_type":"image-button-response","trial_index":23,"time_elapsed":91396,"internal_node_id":"0.0-23.0","participant_id":"AXY0D2AMLKE2A"},{"rt":null,"stimulus":"<p style=\"font-size: 48px;\">+</p>","key_press":null,"Name":"fixation","trial_type":"html-keyboard-response","trial_index":24,"time_elapsed":91898,"internal_node_id":"0.0-24.0","participant_id":"AXY0D2AMLKE2A"},{"rt":null,"stimulus":"stimuli/11.jpg","button_pressed":null,"name":"noRating","trial_type":"image-button-response","trial_index":25,"time_elapsed":96900,"internal_node_id":"0.0-25.0","participant_id":"AXY0D2AMLKE2A"},{"rt":1067,"stimulus":"stimuli/11.jpg","button_pressed":"0","name":"valence","trial_type":"image-button-response","trial_index":26,"time_elapsed":97968,"internal_node_id":"0.0-26.0","participant_id":"AXY0D2AMLKE2A"},{"rt":2848,"response":"79","name":"rating","trial_type":"image-slider-response","trial_index":27,"time_elapsed":100817,"internal_node_id":"0.0-27.0","participant_id":"AXY0D2AMLKE2A"},{"rt":885,"stimulus":"stimuli/11.jpg","button_pressed":"0","name":"emotionType","trial_type":"image-button-response","trial_index":28,"time_elapsed":101703,"internal_node_id":"0.0-28.0","participant_id":"AXY0D2AMLKE2A"},{"rt":null,"stimulus":"<p style=\"font-size: 48px;\">+</p>","key_press":null,"Name":"fixation","trial_type":"html-keyboard-response","trial_index":29,"time_elapsed":102205,"internal_node_id":"0.0-29.0","participant_id":"AXY0D2AMLKE2A"},{"rt":null,"stimulus":"stimuli/42.jpg","button_pressed":null,"name":"noRating","trial_type":"image-button-response","trial_index":30,"time_elapsed":107208,"internal_node_id":"0.0-30.0","participant_id":"AXY0D2AMLKE2A"},{"rt":4625,"stimulus":"stimuli/42.jpg","button_pressed":"0","name":"valence","trial_type":"image-button-response","trial_index":31,"time_elapsed":111834,"internal_node_id":"0.0-31.0","participant_id":"AXY0D2AMLKE2A"},{"rt":3500,"response":"56","name":"rating","trial_type":"image-slider-response","trial_index":32,"time_elapsed":115335,"internal_node_id":"0.0-32.0","participant_id":"AXY0D2AMLKE2A"},{"rt":1241,"stimulus":"stimuli/42.jpg","button_pressed":"2","name":"emotionType","trial_type":"image-button-response","trial_index":33,"time_elapsed":116576,"internal_node_id":"0.0-33.0","participant_id":"AXY0D2AMLKE2A"},{"rt":5903,"responses":"{\"Q0\":\"rock\"}","trial_type":"survey-text","trial_index":34,"time_elapsed":122481,"internal_node_id":"0.0-34.0-0.0","participant_id":"AXY0D2AMLKE2A"},{"rt":null,"stimulus":"<p style=\"font-size: 48px;\">+</p>","key_press":null,"Name":"fixation","trial_type":"html-keyboard-response","trial_index":35,"time_elapsed":123982,"internal_node_id":"0.0-35.0","participant_id":"AXY0D2AMLKE2A"},{"rt":null,"stimulus":"stimuli/68.jpg","button_pressed":null,"name":"noRating","trial_type":"image-button-response","trial_index":36,"time_elapsed":128985,"internal_node_id":"0.0-36.0","participant_id":"AXY0D2AMLKE2A"},{"rt":3425,"stimulus":"stimuli/68.jpg","button_pressed":"0","name":"valence","trial_type":"image-button-response","trial_index":37,"time_elapsed":132410,"internal_node_id":"0.0-37.0","participant_id":"AXY0D2AMLKE2A"},{"rt":8034,"response":"62","name":"rating","trial_type":"image-slider-response","trial_index":38,"time_elapsed":140445,"internal_node_id":"0.0-38.0","participant_id":"AXY0D2AMLKE2A"},{"rt":5083,"stimulus":"stimuli/68.jpg","button_pressed":"0","name":"emotionType","trial_type":"image-button-response","trial_index":39,"time_elapsed":145529,"internal_node_id":"0.0-39.0","participant_id":"AXY0D2AMLKE2A"},{"rt":null,"stimulus":"<p style=\"font-size: 48px;\">+</p>","key_press":null,"Name":"fixation","trial_type":"html-keyboard-response","trial_index":40,"time_elapsed":146530,"internal_node_id":"0.0-40.0","participant_id":"AXY0D2AMLKE2A"},{"rt":null,"stimulus":"stimuli/16.jpg","button_pressed":null,"name":"noRating","trial_type":"image-button-response","trial_index":41,"time_elapsed":151531,"internal_node_id":"0.0-41.0","participant_id":"AXY0D2AMLKE2A"},{"rt":1436,"stimulus":"stimuli/16.jpg","button_pressed":"0","name":"valence","trial_type":"image-button-response","trial_index":42,"time_elapsed":152968,"internal_node_id":"0.0-42.0","participant_id":"AXY0D2AMLKE2A"},{"rt":5220,"response":"76","name":"rating","trial_type":"image-slider-response","trial_index":43,"time_elapsed":158189,"internal_node_id":"0.0-43.0","participant_id":"AXY0D2AMLKE2A"},{"rt":1608,"stimulus":"stimuli/16.jpg","button_pressed":"0","name":"emotionType","trial_type":"image-button-response","trial_index":44,"time_elapsed":159798,"internal_node_id":"0.0-44.0","participant_id":"AXY0D2AMLKE2A"},{"rt":null,"stimulus":"<p style=\"font-size: 48px;\">+</p>","key_press":null,"Name":"fixation","trial_type":"html-keyboard-response","trial_index":45,"time_elapsed":160800,"internal_node_id":"0.0-45.0","participant_id":"AXY0D2AMLKE2A"},{"rt":null,"stimulus":"stimuli/20.jpg","button_pressed":null,"name":"noRating","trial_type":"image-button-response","trial_index":46,"time_elapsed":165803,"internal_node_id":"0.0-46.0","participant_id":"AXY0D2AMLKE2A"},{"rt":987,"stimulus":"stimuli/20.jpg","button_pressed":"0","name":"valence","trial_type":"image-button-response","trial_index":47,"time_elapsed":166791,"internal_node_id":"0.0-47.0","participant_id":"AXY0D2AMLKE2A"},{"rt":2438,"response":"73","name":"rating","trial_type":"image-slider-response","trial_index":48,"time_elapsed":169229,"internal_node_id":"0.0-48.0","participant_id":"AXY0D2AMLKE2A"},{"rt":771,"stimulus":"stimuli/20.jpg","button_pressed":"1","name":"emotionType","trial_type":"image-button-response","trial_index":49,"time_elapsed":170001,"internal_node_id":"0.0-49.0","participant_id":"AXY0D2AMLKE2A"},{"rt":null,"stimulus":"<p style=\"font-size: 48px;\">+</p>","key_press":null,"Name":"fixation","trial_type":"html-keyboard-response","trial_index":50,"time_elapsed":171002,"internal_node_id":"0.0-50.0","participant_id":"AXY0D2AMLKE2A"},{"rt":null,"stimulus":"stimuli/54.jpg","button_pressed":null,"name":"noRating","trial_type":"image-button-response","trial_index":51,"time_elapsed":176004,"internal_node_id":"0.0-51.0","participant_id":"AXY0D2AMLKE2A"},{"rt":1372,"stimulus":"stimuli/54.jpg","button_pressed":"0","name":"valence","trial_type":"image-button-response","trial_index":52,"time_elapsed":177378,"internal_node_id":"0.0-52.0","participant_id":"AXY0D2AMLKE2A"},{"rt":2443,"response":"63","name":"rating","trial_type":"image-slider-response","trial_index":53,"time_elapsed":179821,"internal_node_id":"0.0-53.0","participant_id":"AXY0D2AMLKE2A"},{"rt":2915,"stimulus":"stimuli/54.jpg","button_pressed":"0","name":"emotionType","trial_type":"image-button-response","trial_index":54,"time_elapsed":182737,"internal_node_id":"0.0-54.0","participant_id":"AXY0D2AMLKE2A"},{"rt":null,"stimulus":"<p style=\"font-size: 48px;\">+</p>","key_press":null,"Name":"fixation","trial_type":"html-keyboard-response","trial_index":55,"time_elapsed":183738,"internal_node_id":"0.0-55.0","participant_id":"AXY0D2AMLKE2A"},{"rt":null,"stimulus":"stimuli/70.jpg","button_pressed":null,"name":"noRating","trial_type":"image-button-response","trial_index":56,"time_elapsed":188741,"internal_node_id":"0.0-56.0","participant_id":"AXY0D2AMLKE2A"},{"rt":2700,"stimulus":"stimuli/70.jpg","button_pressed":"0","name":"valence","trial_type":"image-button-response","trial_index":57,"time_elapsed":191443,"internal_node_id":"0.0-57.0","participant_id":"AXY0D2AMLKE2A"},{"rt":3228,"response":"66","name":"rating","trial_type":"image-slider-response","trial_index":58,"time_elapsed":194672,"internal_node_id":"0.0-58.0","participant_id":"AXY0D2AMLKE2A"},{"rt":2437,"stimulus":"stimuli/70.jpg","button_pressed":"0","name":"emotionType","trial_type":"image-button-response","trial_index":59,"time_elapsed":197110,"internal_node_id":"0.0-59.0","participant_id":"AXY0D2AMLKE2A"},{"rt":4505,"responses":"{\"Q0\":\"sky\"}","trial_type":"survey-text","trial_index":60,"time_elapsed":201616,"internal_node_id":"0.0-60.0-0.0","participant_id":"AXY0D2AMLKE2A"},{"rt":null,"stimulus":"<p style=\"font-size: 48px;\">+</p>","key_press":null,"Name":"fixation","trial_type":"html-keyboard-response","trial_index":61,"time_elapsed":203116,"internal_node_id":"0.0-61.0","participant_id":"AXY0D2AMLKE2A"},{"rt":null,"stimulus":"stimuli/45.jpg","button_pressed":null,"name":"noRating","trial_type":"image-button-response","trial_index":62,"time_elapsed":208118,"internal_node_id":"0.0-62.0","participant_id":"AXY0D2AMLKE2A"},{"rt":1360,"stimulus":"stimuli/45.jpg","button_pressed":"0","name":"valence","trial_type":"image-button-response","trial_index":63,"time_elapsed":209480,"internal_node_id":"0.0-63.0","participant_id":"AXY0D2AMLKE2A"},{"rt":3927,"response":"73","name":"rating","trial_type":"image-slider-response","trial_index":64,"time_elapsed":213407,"internal_node_id":"0.0-64.0","participant_id":"AXY0D2AMLKE2A"},{"rt":782,"stimulus":"stimuli/45.jpg","button_pressed":"0","name":"emotionType","trial_type":"image-button-response","trial_index":65,"time_elapsed":214189,"internal_node_id":"0.0-65.0","participant_id":"AXY0D2AMLKE2A"},{"rt":null,"stimulus":"<p style=\"font-size: 48px;\">+</p>","key_press":null,"Name":"fixation","trial_type":"html-keyboard-response","trial_index":66,"time_elapsed":215192,"internal_node_id":"0.0-66.0","participant_id":"AXY0D2AMLKE2A"},{"rt":null,"stimulus":"stimuli/58.jpg","button_pressed":null,"name":"noRating","trial_type":"image-button-response","trial_index":67,"time_elapsed":220194,"internal_node_id":"0.0-67.0","participant_id":"AXY0D2AMLKE2A"},{"rt":16496,"stimulus":"stimuli/58.jpg","button_pressed":"0","name":"valence","trial_type":"image-button-response","trial_index":68,"time_elapsed":236691,"internal_node_id":"0.0-68.0","participant_id":"AXY0D2AMLKE2A"},{"rt":5292,"response":"84","name":"rating","trial_type":"image-slider-response","trial_index":69,"time_elapsed":241983,"internal_node_id":"0.0-69.0","participant_id":"AXY0D2AMLKE2A"},{"rt":795,"stimulus":"stimuli/58.jpg","button_pressed":"0","name":"emotionType","trial_type":"image-button-response","trial_index":70,"time_elapsed":242779,"internal_node_id":"0.0-70.0","participant_id":"AXY0D2AMLKE2A"},{"rt":null,"stimulus":"<p style=\"font-size: 48px;\">+</p>","key_press":null,"Name":"fixation","trial_type":"html-keyboard-response","trial_index":71,"time_elapsed":244282,"internal_node_id":"0.0-71.0","participant_id":"AXY0D2AMLKE2A"},{"rt":null,"stimulus":"stimuli/30.jpg","button_pressed":null,"name":"noRating","trial_type":"image-button-response","trial_index":72,"time_elapsed":249283,"internal_node_id":"0.0-72.0","participant_id":"AXY0D2AMLKE2A"},{"rt":1986,"stimulus":"stimuli/30.jpg","button_pressed":"0","name":"valence","trial_type":"image-button-response","trial_index":73,"time_elapsed":251270,"internal_node_id":"0.0-73.0","participant_id":"AXY0D2AMLKE2A"},{"rt":4496,"response":"57","name":"rating","trial_type":"image-slider-response","trial_index":74,"time_elapsed":255766,"internal_node_id":"0.0-74.0","participant_id":"AXY0D2AMLKE2A"},{"rt":1733,"stimulus":"stimuli/30.jpg","button_pressed":"0","name":"emotionType","trial_type":"image-button-response","trial_index":75,"time_elapsed":257501,"internal_node_id":"0.0-75.0","participant_id":"AXY0D2AMLKE2A"},{"rt":null,"stimulus":"<p style=\"font-size: 48px;\">+</p>","key_press":null,"Name":"fixation","trial_type":"html-keyboard-response","trial_index":76,"time_elapsed":258502,"internal_node_id":"0.0-76.0","participant_id":"AXY0D2AMLKE2A"},{"rt":null,"stimulus":"stimuli/1.jpg","button_pressed":null,"name":"noRating","trial_type":"image-button-response","trial_index":77,"time_elapsed":263503,"internal_node_id":"0.0-77.0","participant_id":"AXY0D2AMLKE2A"},{"rt":11434,"stimulus":"stimuli/1.jpg","button_pressed":"0","name":"valence","trial_type":"image-button-response","trial_index":78,"time_elapsed":274937,"internal_node_id":"0.0-78.0","participant_id":"AXY0D2AMLKE2A"},{"rt":14955,"response":"53","name":"rating","trial_type":"image-slider-response","trial_index":79,"time_elapsed":289892,"internal_node_id":"0.0-79.0","participant_id":"AXY0D2AMLKE2A"},{"rt":1436,"stimulus":"stimuli/1.jpg","button_pressed":"0","name":"emotionType","trial_type":"image-button-response","trial_index":80,"time_elapsed":291329,"internal_node_id":"0.0-80.0","participant_id":"AXY0D2AMLKE2A"},{"rt":null,"stimulus":"<p style=\"font-size: 48px;\">+</p>","key_press":null,"Name":"fixation","trial_type":"html-keyboard-response","trial_index":81,"time_elapsed":292830,"internal_node_id":"0.0-81.0","participant_id":"AXY0D2AMLKE2A"},{"rt":null,"stimulus":"stimuli/38.jpg","button_pressed":null,"name":"noRating","trial_type":"image-button-response","trial_index":82,"time_elapsed":297834,"internal_node_id":"0.0-82.0","participant_id":"AXY0D2AMLKE2A"},{"rt":10690,"stimulus":"stimuli/38.jpg","button_pressed":"0","name":"valence","trial_type":"image-button-response","trial_index":83,"time_elapsed":308525,"internal_node_id":"0.0-83.0","participant_id":"AXY0D2AMLKE2A"},{"rt":2961,"response":"51","name":"rating","trial_type":"image-slider-response","trial_index":84,"time_elapsed":311487,"internal_node_id":"0.0-84.0","participant_id":"AXY0D2AMLKE2A"},{"rt":2123,"stimulus":"stimuli/38.jpg","button_pressed":"2","name":"emotionType","trial_type":"image-button-response","trial_index":85,"time_elapsed":313610,"internal_node_id":"0.0-85.0","participant_id":"AXY0D2AMLKE2A"},{"rt":6833,"responses":"{\"Q0\":\"our\"}","trial_type":"survey-text","trial_index":86,"time_elapsed":320444,"internal_node_id":"0.0-86.0-0.0","participant_id":"AXY0D2AMLKE2A"},{"rt":null,"stimulus":"<p style=\"font-size: 48px;\">+</p>","key_press":null,"Name":"fixation","trial_type":"html-keyboard-response","trial_index":87,"time_elapsed":320944,"internal_node_id":"0.0-87.0","participant_id":"AXY0D2AMLKE2A"},{"rt":null,"stimulus":"stimuli/5.jpg","button_pressed":null,"name":"noRating","trial_type":"image-button-response","trial_index":88,"time_elapsed":325945,"internal_node_id":"0.0-88.0","participant_id":"AXY0D2AMLKE2A"},{"rt":872,"stimulus":"stimuli/5.jpg","button_pressed":"0","name":"valence","trial_type":"image-button-response","trial_index":89,"time_elapsed":326818,"internal_node_id":"0.0-89.0","participant_id":"AXY0D2AMLKE2A"},{"rt":2711,"response":"82","name":"rating","trial_type":"image-slider-response","trial_index":90,"time_elapsed":329530,"internal_node_id":"0.0-90.0","participant_id":"AXY0D2AMLKE2A"},{"rt":848,"stimulus":"stimuli/5.jpg","button_pressed":"0","name":"emotionType","trial_type":"image-button-response","trial_index":91,"time_elapsed":330378,"internal_node_id":"0.0-91.0","participant_id":"AXY0D2AMLKE2A"},{"rt":null,"stimulus":"<p style=\"font-size: 48px;\">+</p>","key_press":null,"Name":"fixation","trial_type":"html-keyboard-response","trial_index":92,"time_elapsed":331379,"internal_node_id":"0.0-92.0","participant_id":"AXY0D2AMLKE2A"},{"rt":null,"stimulus":"stimuli/25.jpg","button_pressed":null,"name":"noRating","trial_type":"image-button-response","trial_index":93,"time_elapsed":336380,"internal_node_id":"0.0-93.0","participant_id":"AXY0D2AMLKE2A"},{"rt":4248,"stimulus":"stimuli/25.jpg","button_pressed":"0","name":"valence","trial_type":"image-button-response","trial_index":94,"time_elapsed":340630,"internal_node_id":"0.0-94.0","participant_id":"AXY0D2AMLKE2A"},{"rt":3358,"response":"53","name":"rating","trial_type":"image-slider-response","trial_index":95,"time_elapsed":343988,"internal_node_id":"0.0-95.0","participant_id":"AXY0D2AMLKE2A"},{"rt":3504,"stimulus":"stimuli/25.jpg","button_pressed":"0","name":"emotionType","trial_type":"image-button-response","trial_index":96,"time_elapsed":347494,"internal_node_id":"0.0-96.0","participant_id":"AXY0D2AMLKE2A"},{"rt":null,"stimulus":"<p style=\"font-size: 48px;\">+</p>","key_press":null,"Name":"fixation","trial_type":"html-keyboard-response","trial_index":97,"time_elapsed":348495,"internal_node_id":"0.0-97.0","participant_id":"AXY0D2AMLKE2A"},{"rt":null,"stimulus":"stimuli/63.jpg","button_pressed":null,"name":"noRating","trial_type":"image-button-response","trial_index":98,"time_elapsed":353495,"internal_node_id":"0.0-98.0","participant_id":"AXY0D2AMLKE2A"},{"rt":1325,"stimulus":"stimuli/63.jpg","button_pressed":"0","name":"valence","trial_type":"image-button-response","trial_index":99,"time_elapsed":354821,"internal_node_id":"0.0-99.0","participant_id":"AXY0D2AMLKE2A"},{"rt":3164,"response":"68","name":"rating","trial_type":"image-slider-response","trial_index":100,"time_elapsed":357985,"internal_node_id":"0.0-100.0","participant_id":"AXY0D2AMLKE2A"},{"rt":948,"stimulus":"stimuli/63.jpg","button_pressed":"0","name":"emotionType","trial_type":"image-button-response","trial_index":101,"time_elapsed":358934,"internal_node_id":"0.0-101.0","participant_id":"AXY0D2AMLKE2A"},{"rt":null,"stimulus":"<p style=\"font-size: 48px;\">+</p>","key_press":null,"Name":"fixation","trial_type":"html-keyboard-response","trial_index":102,"time_elapsed":360435,"internal_node_id":"0.0-102.0","participant_id":"AXY0D2AMLKE2A"},{"rt":null,"stimulus":"stimuli/35.jpg","button_pressed":null,"name":"noRating","trial_type":"image-button-response","trial_index":103,"time_elapsed":365437,"internal_node_id":"0.0-103.0","participant_id":"AXY0D2AMLKE2A"},{"rt":2150,"stimulus":"stimuli/35.jpg","button_pressed":"0","name":"valence","trial_type":"image-button-response","trial_index":104,"time_elapsed":367588,"internal_node_id":"0.0-104.0","participant_id":"AXY0D2AMLKE2A"},{"rt":9593,"response":"55","name":"rating","trial_type":"image-slider-response","trial_index":105,"time_elapsed":377181,"internal_node_id":"0.0-105.0","participant_id":"AXY0D2AMLKE2A"},{"rt":972,"stimulus":"stimuli/35.jpg","button_pressed":"1","name":"emotionType","trial_type":"image-button-response","trial_index":106,"time_elapsed":378154,"internal_node_id":"0.0-106.0","participant_id":"AXY0D2AMLKE2A"},{"rt":null,"stimulus":"<p style=\"font-size: 48px;\">+</p>","key_press":null,"Name":"fixation","trial_type":"html-keyboard-response","trial_index":107,"time_elapsed":378655,"internal_node_id":"0.0-107.0","participant_id":"AXY0D2AMLKE2A"},{"rt":null,"stimulus":"stimuli/67.jpg","button_pressed":null,"name":"noRating","trial_type":"image-button-response","trial_index":108,"time_elapsed":383657,"internal_node_id":"0.0-108.0","participant_id":"AXY0D2AMLKE2A"},{"rt":983,"stimulus":"stimuli/67.jpg","button_pressed":"0","name":"valence","trial_type":"image-button-response","trial_index":109,"time_elapsed":384640,"internal_node_id":"0.0-109.0","participant_id":"AXY0D2AMLKE2A"},{"rt":3044,"response":"58","name":"rating","trial_type":"image-slider-response","trial_index":110,"time_elapsed":387685,"internal_node_id":"0.0-110.0","participant_id":"AXY0D2AMLKE2A"},{"rt":1877,"stimulus":"stimuli/67.jpg","button_pressed":"1","name":"emotionType","trial_type":"image-button-response","trial_index":111,"time_elapsed":389562,"internal_node_id":"0.0-111.0","participant_id":"AXY0D2AMLKE2A"},{"rt":5467,"responses":"{\"Q0\":\"course\"}","trial_type":"survey-text","trial_index":112,"time_elapsed":395029,"internal_node_id":"0.0-112.0-0.0","participant_id":"AXY0D2AMLKE2A"},{"rt":null,"stimulus":"<p style=\"font-size: 48px;\">+</p>","key_press":null,"Name":"fixation","trial_type":"html-keyboard-response","trial_index":113,"time_elapsed":395531,"internal_node_id":"0.0-113.0","participant_id":"AXY0D2AMLKE2A"},{"rt":null,"stimulus":"stimuli/13.jpg","button_pressed":null,"name":"noRating","trial_type":"image-button-response","trial_index":114,"time_elapsed":400533,"internal_node_id":"0.0-114.0","participant_id":"AXY0D2AMLKE2A"},{"rt":3524,"stimulus":"stimuli/13.jpg","button_pressed":"0","name":"valence","trial_type":"image-button-response","trial_index":115,"time_elapsed":404058,"internal_node_id":"0.0-115.0","participant_id":"AXY0D2AMLKE2A"},{"rt":4250,"response":"56","name":"rating","trial_type":"image-slider-response","trial_index":116,"time_elapsed":408309,"internal_node_id":"0.0-116.0","participant_id":"AXY0D2AMLKE2A"},{"rt":811,"stimulus":"stimuli/13.jpg","button_pressed":"0","name":"emotionType","trial_type":"image-button-response","trial_index":117,"time_elapsed":409121,"internal_node_id":"0.0-117.0","participant_id":"AXY0D2AMLKE2A"},{"rt":null,"stimulus":"<p style=\"font-size: 48px;\">+</p>","key_press":null,"Name":"fixation","trial_type":"html-keyboard-response","trial_index":118,"time_elapsed":410122,"internal_node_id":"0.0-118.0","participant_id":"AXY0D2AMLKE2A"},{"rt":null,"stimulus":"stimuli/71.jpg","button_pressed":null,"name":"noRating","trial_type":"image-button-response","trial_index":119,"time_elapsed":415124,"internal_node_id":"0.0-119.0","participant_id":"AXY0D2AMLKE2A"},{"rt":975,"stimulus":"stimuli/71.jpg","button_pressed":"0","name":"valence","trial_type":"image-button-response","trial_index":120,"time_elapsed":416100,"internal_node_id":"0.0-120.0","participant_id":"AXY0D2AMLKE2A"},{"rt":3261,"response":"90","name":"rating","trial_type":"image-slider-response","trial_index":121,"time_elapsed":419361,"internal_node_id":"0.0-121.0","participant_id":"AXY0D2AMLKE2A"},{"rt":735,"stimulus":"stimuli/71.jpg","button_pressed":"0","name":"emotionType","trial_type":"image-button-response","trial_index":122,"time_elapsed":420096,"internal_node_id":"0.0-122.0","participant_id":"AXY0D2AMLKE2A"},{"rt":null,"stimulus":"<p style=\"font-size: 48px;\">+</p>","key_press":null,"Name":"fixation","trial_type":"html-keyboard-response","trial_index":123,"time_elapsed":421097,"internal_node_id":"0.0-123.0","participant_id":"AXY0D2AMLKE2A"},{"rt":null,"stimulus":"stimuli/53.jpg","button_pressed":null,"name":"noRating","trial_type":"image-button-response","trial_index":124,"time_elapsed":426099,"internal_node_id":"0.0-124.0","participant_id":"AXY0D2AMLKE2A"},{"rt":1063,"stimulus":"stimuli/53.jpg","button_pressed":"0","name":"valence","trial_type":"image-button-response","trial_index":125,"time_elapsed":427163,"internal_node_id":"0.0-125.0","participant_id":"AXY0D2AMLKE2A"},{"rt":3017,"response":"90","name":"rating","trial_type":"image-slider-response","trial_index":126,"time_elapsed":430182,"internal_node_id":"0.0-126.0","participant_id":"AXY0D2AMLKE2A"},{"rt":1319,"stimulus":"stimuli/53.jpg","button_pressed":"0","name":"emotionType","trial_type":"image-button-response","trial_index":127,"time_elapsed":431501,"internal_node_id":"0.0-127.0","participant_id":"AXY0D2AMLKE2A"},{"rt":null,"stimulus":"<p style=\"font-size: 48px;\">+</p>","key_press":null,"Name":"fixation","trial_type":"html-keyboard-response","trial_index":128,"time_elapsed":432502,"internal_node_id":"0.0-128.0","participant_id":"AXY0D2AMLKE2A"},{"rt":null,"stimulus":"stimuli/28.jpg","button_pressed":null,"name":"noRating","trial_type":"image-button-response","trial_index":129,"time_elapsed":437505,"internal_node_id":"0.0-129.0","participant_id":"AXY0D2AMLKE2A"},{"rt":1073,"stimulus":"stimuli/28.jpg","button_pressed":"0","name":"valence","trial_type":"image-button-response","trial_index":130,"time_elapsed":438578,"internal_node_id":"0.0-130.0","participant_id":"AXY0D2AMLKE2A"},{"rt":2126,"response":"66","name":"rating","trial_type":"image-slider-response","trial_index":131,"time_elapsed":440705,"internal_node_id":"0.0-131.0","participant_id":"AXY0D2AMLKE2A"},{"rt":774,"stimulus":"stimuli/28.jpg","button_pressed":"1","name":"emotionType","trial_type":"image-button-response","trial_index":132,"time_elapsed":441480,"internal_node_id":"0.0-132.0","participant_id":"AXY0D2AMLKE2A"},{"rt":null,"stimulus":"<p style=\"font-size: 48px;\">+</p>","key_press":null,"Name":"fixation","trial_type":"html-keyboard-response","trial_index":133,"time_elapsed":442982,"internal_node_id":"0.0-133.0","participant_id":"AXY0D2AMLKE2A"},{"rt":null,"stimulus":"stimuli/19.jpg","button_pressed":null,"name":"noRating","trial_type":"image-button-response","trial_index":134,"time_elapsed":447983,"internal_node_id":"0.0-134.0","participant_id":"AXY0D2AMLKE2A"},{"rt":869,"stimulus":"stimuli/19.jpg","button_pressed":"0","name":"valence","trial_type":"image-button-response","trial_index":135,"time_elapsed":448852,"internal_node_id":"0.0-135.0","participant_id":"AXY0D2AMLKE2A"},{"rt":2894,"response":"84","name":"rating","trial_type":"image-slider-response","trial_index":136,"time_elapsed":451747,"internal_node_id":"0.0-136.0","participant_id":"AXY0D2AMLKE2A"},{"rt":937,"stimulus":"stimuli/19.jpg","button_pressed":"0","name":"emotionType","trial_type":"image-button-response","trial_index":137,"time_elapsed":452685,"internal_node_id":"0.0-137.0","participant_id":"AXY0D2AMLKE2A"},{"rt":3498,"responses":"{\"Q0\":\"we\"}","trial_type":"survey-text","trial_index":138,"time_elapsed":456184,"internal_node_id":"0.0-138.0-0.0","participant_id":"AXY0D2AMLKE2A"},{"rt":null,"stimulus":"<p style=\"font-size: 48px;\">+</p>","key_press":null,"Name":"fixation","trial_type":"html-keyboard-response","trial_index":139,"time_elapsed":457686,"internal_node_id":"0.0-139.0","participant_id":"AXY0D2AMLKE2A"},{"rt":null,"stimulus":"stimuli/37.jpg","button_pressed":null,"name":"noRating","trial_type":"image-button-response","trial_index":140,"time_elapsed":462688,"internal_node_id":"0.0-140.0","participant_id":"AXY0D2AMLKE2A"},{"rt":663,"stimulus":"stimuli/37.jpg","button_pressed":"0","name":"valence","trial_type":"image-button-response","trial_index":141,"time_elapsed":463351,"internal_node_id":"0.0-141.0","participant_id":"AXY0D2AMLKE2A"},{"rt":2126,"response":"100","name":"rating","trial_type":"image-slider-response","trial_index":142,"time_elapsed":465478,"internal_node_id":"0.0-142.0","participant_id":"AXY0D2AMLKE2A"},{"rt":853,"stimulus":"stimuli/37.jpg","button_pressed":"0","name":"emotionType","trial_type":"image-button-response","trial_index":143,"time_elapsed":466332,"internal_node_id":"0.0-143.0","participant_id":"AXY0D2AMLKE2A"},{"rt":null,"stimulus":"<p style=\"font-size: 48px;\">+</p>","key_press":null,"Name":"fixation","trial_type":"html-keyboard-response","trial_index":144,"time_elapsed":466833,"internal_node_id":"0.0-144.0","participant_id":"AXY0D2AMLKE2A"},{"rt":null,"stimulus":"stimuli/8.jpg","button_pressed":null,"name":"noRating","trial_type":"image-button-response","trial_index":145,"time_elapsed":471835,"internal_node_id":"0.0-145.0","participant_id":"AXY0D2AMLKE2A"},{"rt":765,"stimulus":"stimuli/8.jpg","button_pressed":"0","name":"valence","trial_type":"image-button-response","trial_index":146,"time_elapsed":472602,"internal_node_id":"0.0-146.0","participant_id":"AXY0D2AMLKE2A"},{"rt":2599,"response":"78","name":"rating","trial_type":"image-slider-response","trial_index":147,"time_elapsed":475202,"internal_node_id":"0.0-147.0","participant_id":"AXY0D2AMLKE2A"},{"rt":1246,"stimulus":"stimuli/8.jpg","button_pressed":"0","name":"emotionType","trial_type":"image-button-response","trial_index":148,"time_elapsed":476448,"internal_node_id":"0.0-148.0","participant_id":"AXY0D2AMLKE2A"},{"rt":null,"stimulus":"<p style=\"font-size: 48px;\">+</p>","key_press":null,"Name":"fixation","trial_type":"html-keyboard-response","trial_index":149,"time_elapsed":476949,"internal_node_id":"0.0-149.0","participant_id":"AXY0D2AMLKE2A"},{"rt":null,"stimulus":"stimuli/26.jpg","button_pressed":null,"name":"noRating","trial_type":"image-button-response","trial_index":150,"time_elapsed":481950,"internal_node_id":"0.0-150.0","participant_id":"AXY0D2AMLKE2A"},{"rt":1065,"stimulus":"stimuli/26.jpg","button_pressed":"0","name":"valence","trial_type":"image-button-response","trial_index":151,"time_elapsed":483017,"internal_node_id":"0.0-151.0","participant_id":"AXY0D2AMLKE2A"},{"rt":2441,"response":"80","name":"rating","trial_type":"image-slider-response","trial_index":152,"time_elapsed":485458,"internal_node_id":"0.0-152.0","participant_id":"AXY0D2AMLKE2A"},{"rt":858,"stimulus":"stimuli/26.jpg","button_pressed":"0","name":"emotionType","trial_type":"image-button-response","trial_index":153,"time_elapsed":486318,"internal_node_id":"0.0-153.0","participant_id":"AXY0D2AMLKE2A"},{"rt":null,"stimulus":"<p style=\"font-size: 48px;\">+</p>","key_press":null,"Name":"fixation","trial_type":"html-keyboard-response","trial_index":154,"time_elapsed":487818,"internal_node_id":"0.0-154.0","participant_id":"AXY0D2AMLKE2A"},{"rt":null,"stimulus":"stimuli/62.jpg","button_pressed":null,"name":"noRating","trial_type":"image-button-response","trial_index":155,"time_elapsed":492820,"internal_node_id":"0.0-155.0","participant_id":"AXY0D2AMLKE2A"},{"rt":1101,"stimulus":"stimuli/62.jpg","button_pressed":"0","name":"valence","trial_type":"image-button-response","trial_index":156,"time_elapsed":493921,"internal_node_id":"0.0-156.0","participant_id":"AXY0D2AMLKE2A"},{"rt":2689,"response":"90","name":"rating","trial_type":"image-slider-response","trial_index":157,"time_elapsed":496610,"internal_node_id":"0.0-157.0","participant_id":"AXY0D2AMLKE2A"},{"rt":951,"stimulus":"stimuli/62.jpg","button_pressed":"0","name":"emotionType","trial_type":"image-button-response","trial_index":158,"time_elapsed":497561,"internal_node_id":"0.0-158.0","participant_id":"AXY0D2AMLKE2A"},{"rt":null,"stimulus":"<p style=\"font-size: 48px;\">+</p>","key_press":null,"Name":"fixation","trial_type":"html-keyboard-response","trial_index":159,"time_elapsed":499063,"internal_node_id":"0.0-159.0","participant_id":"AXY0D2AMLKE2A"},{"rt":null,"stimulus":"stimuli/6.jpg","button_pressed":null,"name":"noRating","trial_type":"image-button-response","trial_index":160,"time_elapsed":504065,"internal_node_id":"0.0-160.0","participant_id":"AXY0D2AMLKE2A"},{"rt":820,"stimulus":"stimuli/6.jpg","button_pressed":"0","name":"valence","trial_type":"image-button-response","trial_index":161,"time_elapsed":504886,"internal_node_id":"0.0-161.0","participant_id":"AXY0D2AMLKE2A"},{"rt":2412,"response":"86","name":"rating","trial_type":"image-slider-response","trial_index":162,"time_elapsed":507299,"internal_node_id":"0.0-162.0","participant_id":"AXY0D2AMLKE2A"},{"rt":916,"stimulus":"stimuli/6.jpg","button_pressed":"0","name":"emotionType","trial_type":"image-button-response","trial_index":163,"time_elapsed":508215,"internal_node_id":"0.0-163.0","participant_id":"AXY0D2AMLKE2A"},{"rt":4408,"stimulus":"stimuli/ins/Slide8.JPG","button_pressed":"0","trial_type":"image-button-response","trial_index":164,"time_elapsed":512624,"internal_node_id":"0.0-164.0","participant_id":"AXY0D2AMLKE2A"}]