[{"rt":3628,"responses":"{\"Q0\":\"AY5OS6NZWVX22\"}","trial_type":"survey-text","trial_index":0,"time_elapsed":3634,"internal_node_id":"0.0-0.0-0.0","participant_id":"AY5OS6NZWVX22"},{"rt":8861,"stimulus":"stimuli/ins/Slide1.JPG","button_pressed":"0","Name":"instructions","trial_type":"image-button-response","trial_index":1,"time_elapsed":12498,"internal_node_id":"0.0-1.0","participant_id":"AY5OS6NZWVX22"},{"rt":4125,"stimulus":"stimuli/ins/Slide2.JPG","button_pressed":"0","Name":"instructions","trial_type":"image-button-response","trial_index":2,"time_elapsed":16624,"internal_node_id":"0.0-2.0","participant_id":"AY5OS6NZWVX22"},{"rt":4528,"stimulus":"stimuli/ins/Slide3.JPG","button_pressed":"0","Name":"instructions","trial_type":"image-button-response","trial_index":3,"time_elapsed":21153,"internal_node_id":"0.0-3.0","participant_id":"AY5OS6NZWVX22"},{"rt":9591,"stimulus":"stimuli/ins/Slide4.JPG","button_pressed":"0","Name":"instructions","trial_type":"image-button-response","trial_index":4,"time_elapsed":30745,"internal_node_id":"0.0-4.0","participant_id":"AY5OS6NZWVX22"},{"rt":2567,"stimulus":"stimuli/ins/Slide5.JPG","button_pressed":"0","Name":"instructions","trial_type":"image-button-response","trial_index":5,"time_elapsed":33313,"internal_node_id":"0.0-5.0","participant_id":"AY5OS6NZWVX22"},{"rt":1838,"stimulus":"stimuli/ins/Slide6.JPG","button_pressed":"0","Name":"instructions","trial_type":"image-button-response","trial_index":6,"time_elapsed":35153,"internal_node_id":"0.0-6.0","participant_id":"AY5OS6NZWVX22"},{"rt":1127,"stimulus":"stimuli/ins/Slide7.JPG","button_pressed":"0","Name":"instructions","trial_type":"image-button-response","trial_index":7,"time_elapsed":36281,"internal_node_id":"0.0-7.0","participant_id":"AY5OS6NZWVX22"},{"rt":10559,"responses":"{\"Q0\":\"but\"}","trial_type":"survey-text","trial_index":8,"time_elapsed":46841,"internal_node_id":"0.0-8.0-0.0","participant_id":"AY5OS6NZWVX22"},{"rt":null,"stimulus":"<p style=\"font-size: 48px;\">+</p>","key_press":null,"Name":"fixation","trial_type":"html-keyboard-response","trial_index":9,"time_elapsed":47843,"internal_node_id":"0.0-9.0","participant_id":"AY5OS6NZWVX22"},{"rt":null,"stimulus":"stimuli/17.jpg","button_pressed":null,"name":"noRating","trial_type":"image-button-response","trial_index":10,"time_elapsed":52845,"internal_node_id":"0.0-10.0","participant_id":"AY5OS6NZWVX22"},{"rt":7595,"stimulus":"stimuli/17.jpg","button_pressed":"1","name":"valence","trial_type":"image-button-response","trial_index":11,"time_elapsed":60442,"internal_node_id":"0.0-11.0","participant_id":"AY5OS6NZWVX22"},{"rt":2366,"response":"7","name":"rating","trial_type":"image-slider-response","trial_index":12,"time_elapsed":62811,"internal_node_id":"0.0-12.0","participant_id":"AY5OS6NZWVX22"},{"rt":12725,"stimulus":"stimuli/17.jpg","button_pressed":"3","name":"emotionType","trial_type":"image-button-response","trial_index":13,"time_elapsed":75537,"internal_node_id":"0.0-13.0","participant_id":"AY5OS6NZWVX22"},{"rt":null,"stimulus":"<p style=\"font-size: 48px;\">+</p>","key_press":null,"Name":"fixation","trial_type":"html-keyboard-response","trial_index":14,"time_elapsed":76040,"internal_node_id":"0.0-14.0","participant_id":"AY5OS6NZWVX22"},{"rt":null,"stimulus":"stimuli/1.jpg","button_pressed":null,"name":"noRating","trial_type":"image-button-response","trial_index":15,"time_elapsed":81042,"internal_node_id":"0.0-15.0","participant_id":"AY5OS6NZWVX22"},{"rt":2862,"stimulus":"stimuli/1.jpg","button_pressed":"0","name":"valence","trial_type":"image-button-response","trial_index":16,"time_elapsed":83905,"internal_node_id":"0.0-16.0","participant_id":"AY5OS6NZWVX22"},{"rt":4271,"response":"35","name":"rating","trial_type":"image-slider-response","trial_index":17,"time_elapsed":88178,"internal_node_id":"0.0-17.0","participant_id":"AY5OS6NZWVX22"},{"rt":1431,"stimulus":"stimuli/1.jpg","button_pressed":"0","name":"emotionType","trial_type":"image-button-response","trial_index":18,"time_elapsed":89610,"internal_node_id":"0.0-18.0","participant_id":"AY5OS6NZWVX22"},{"rt":null,"stimulus":"<p style=\"font-size: 48px;\">+</p>","key_press":null,"Name":"fixation","trial_type":"html-keyboard-response","trial_index":19,"time_elapsed":91111,"internal_node_id":"0.0-19.0","participant_id":"AY5OS6NZWVX22"},{"rt":null,"stimulus":"stimuli/48.jpg","button_pressed":null,"name":"noRating","trial_type":"image-button-response","trial_index":20,"time_elapsed":96114,"internal_node_id":"0.0-20.0","participant_id":"AY5OS6NZWVX22"},{"rt":1333,"stimulus":"stimuli/48.jpg","button_pressed":"0","name":"valence","trial_type":"image-button-response","trial_index":21,"time_elapsed":97450,"internal_node_id":"0.0-21.0","participant_id":"AY5OS6NZWVX22"},{"rt":3246,"response":"24","name":"rating","trial_type":"image-slider-response","trial_index":22,"time_elapsed":100697,"internal_node_id":"0.0-22.0","participant_id":"AY5OS6NZWVX22"},{"rt":1096,"stimulus":"stimuli/48.jpg","button_pressed":"0","name":"emotionType","trial_type":"image-button-response","trial_index":23,"time_elapsed":101794,"internal_node_id":"0.0-23.0","participant_id":"AY5OS6NZWVX22"},{"rt":null,"stimulus":"<p style=\"font-size: 48px;\">+</p>","key_press":null,"Name":"fixation","trial_type":"html-keyboard-response","trial_index":24,"time_elapsed":103296,"internal_node_id":"0.0-24.0","participant_id":"AY5OS6NZWVX22"},{"rt":null,"stimulus":"stimuli/50.jpg","button_pressed":null,"name":"noRating","trial_type":"image-button-response","trial_index":25,"time_elapsed":108299,"internal_node_id":"0.0-25.0","participant_id":"AY5OS6NZWVX22"},{"rt":2246,"stimulus":"stimuli/50.jpg","button_pressed":"2","name":"valence","trial_type":"image-button-response","trial_index":26,"time_elapsed":110546,"internal_node_id":"0.0-26.0","participant_id":"AY5OS6NZWVX22"},{"rt":2382,"response":"0","name":"rating","trial_type":"image-slider-response","trial_index":27,"time_elapsed":112930,"internal_node_id":"0.0-27.0","participant_id":"AY5OS6NZWVX22"},{"rt":3831,"stimulus":"stimuli/50.jpg","button_pressed":"2","name":"emotionType","trial_type":"image-button-response","trial_index":28,"time_elapsed":119474,"internal_node_id":"0.0-28.0","participant_id":"AY5OS6NZWVX22"},{"rt":null,"stimulus":"<p style=\"font-size: 48px;\">+</p>","key_press":null,"Name":"fixation","trial_type":"html-keyboard-response","trial_index":29,"time_elapsed":120975,"internal_node_id":"0.0-29.0","participant_id":"AY5OS6NZWVX22"},{"rt":null,"stimulus":"stimuli/53.jpg","button_pressed":null,"name":"noRating","trial_type":"image-button-response","trial_index":30,"time_elapsed":125977,"internal_node_id":"0.0-30.0","participant_id":"AY5OS6NZWVX22"},{"rt":1662,"stimulus":"stimuli/53.jpg","button_pressed":"2","name":"valence","trial_type":"image-button-response","trial_index":31,"time_elapsed":127641,"internal_node_id":"0.0-31.0","participant_id":"AY5OS6NZWVX22"},{"rt":3312,"response":"35","name":"rating","trial_type":"image-slider-response","trial_index":32,"time_elapsed":130955,"internal_node_id":"0.0-32.0","participant_id":"AY5OS6NZWVX22"},{"rt":4573,"stimulus":"stimuli/53.jpg","button_pressed":"1","name":"emotionType","trial_type":"image-button-response","trial_index":33,"time_elapsed":135530,"internal_node_id":"0.0-33.0","participant_id":"AY5OS6NZWVX22"},{"rt":4998,"responses":"{\"Q0\":\"rock\"}","trial_type":"survey-text","trial_index":34,"time_elapsed":140530,"internal_node_id":"0.0-34.0-0.0","participant_id":"AY5OS6NZWVX22"},{"rt":null,"stimulus":"<p style=\"font-size: 48px;\">+</p>","key_press":null,"Name":"fixation","trial_type":"html-keyboard-response","trial_index":35,"time_elapsed":141532,"internal_node_id":"0.0-35.0","participant_id":"AY5OS6NZWVX22"},{"rt":null,"stimulus":"stimuli/71.jpg","button_pressed":null,"name":"noRating","trial_type":"image-button-response","trial_index":36,"time_elapsed":146533,"internal_node_id":"0.0-36.0","participant_id":"AY5OS6NZWVX22"},{"rt":948,"stimulus":"stimuli/71.jpg","button_pressed":"0","name":"valence","trial_type":"image-button-response","trial_index":37,"time_elapsed":147482,"internal_node_id":"0.0-37.0","participant_id":"AY5OS6NZWVX22"},{"rt":3999,"response":"17","name":"rating","trial_type":"image-slider-response","trial_index":38,"time_elapsed":151483,"internal_node_id":"0.0-38.0","participant_id":"AY5OS6NZWVX22"},{"rt":1557,"stimulus":"stimuli/71.jpg","button_pressed":"0","name":"emotionType","trial_type":"image-button-response","trial_index":39,"time_elapsed":153042,"internal_node_id":"0.0-39.0","participant_id":"AY5OS6NZWVX22"},{"rt":null,"stimulus":"<p style=\"font-size: 48px;\">+</p>","key_press":null,"Name":"fixation","trial_type":"html-keyboard-response","trial_index":40,"time_elapsed":154043,"internal_node_id":"0.0-40.0","participant_id":"AY5OS6NZWVX22"},{"rt":null,"stimulus":"stimuli/64.jpg","button_pressed":null,"name":"noRating","trial_type":"image-button-response","trial_index":41,"time_elapsed":159046,"internal_node_id":"0.0-41.0","participant_id":"AY5OS6NZWVX22"},{"rt":1114,"stimulus":"stimuli/64.jpg","button_pressed":"0","name":"valence","trial_type":"image-button-response","trial_index":42,"time_elapsed":160161,"internal_node_id":"0.0-42.0","participant_id":"AY5OS6NZWVX22"},{"rt":2127,"response":"8","name":"rating","trial_type":"image-slider-response","trial_index":43,"time_elapsed":162290,"internal_node_id":"0.0-43.0","participant_id":"AY5OS6NZWVX22"},{"rt":2974,"stimulus":"stimuli/64.jpg","button_pressed":"2","name":"emotionType","trial_type":"image-button-response","trial_index":44,"time_elapsed":165266,"internal_node_id":"0.0-44.0","participant_id":"AY5OS6NZWVX22"},{"rt":null,"stimulus":"<p style=\"font-size: 48px;\">+</p>","key_press":null,"Name":"fixation","trial_type":"html-keyboard-response","trial_index":45,"time_elapsed":166767,"internal_node_id":"0.0-45.0","participant_id":"AY5OS6NZWVX22"},{"rt":null,"stimulus":"stimuli/67.jpg","button_pressed":null,"name":"noRating","trial_type":"image-button-response","trial_index":46,"time_elapsed":171768,"internal_node_id":"0.0-46.0","participant_id":"AY5OS6NZWVX22"},{"rt":1192,"stimulus":"stimuli/67.jpg","button_pressed":"0","name":"valence","trial_type":"image-button-response","trial_index":47,"time_elapsed":172962,"internal_node_id":"0.0-47.0","participant_id":"AY5OS6NZWVX22"},{"rt":2663,"response":"10","name":"rating","trial_type":"image-slider-response","trial_index":48,"time_elapsed":175625,"internal_node_id":"0.0-48.0","participant_id":"AY5OS6NZWVX22"},{"rt":791,"stimulus":"stimuli/67.jpg","button_pressed":"1","name":"emotionType","trial_type":"image-button-response","trial_index":49,"time_elapsed":176418,"internal_node_id":"0.0-49.0","participant_id":"AY5OS6NZWVX22"},{"rt":null,"stimulus":"<p style=\"font-size: 48px;\">+</p>","key_press":null,"Name":"fixation","trial_type":"html-keyboard-response","trial_index":50,"time_elapsed":177420,"internal_node_id":"0.0-50.0","participant_id":"AY5OS6NZWVX22"},{"rt":null,"stimulus":"stimuli/34.jpg","button_pressed":null,"name":"noRating","trial_type":"image-button-response","trial_index":51,"time_elapsed":182422,"internal_node_id":"0.0-51.0","participant_id":"AY5OS6NZWVX22"},{"rt":1419,"stimulus":"stimuli/34.jpg","button_pressed":"0","name":"valence","trial_type":"image-button-response","trial_index":52,"time_elapsed":183842,"internal_node_id":"0.0-52.0","participant_id":"AY5OS6NZWVX22"},{"rt":2967,"response":"34","name":"rating","trial_type":"image-slider-response","trial_index":53,"time_elapsed":186810,"internal_node_id":"0.0-53.0","participant_id":"AY5OS6NZWVX22"},{"rt":2598,"stimulus":"stimuli/34.jpg","button_pressed":"0","name":"emotionType","trial_type":"image-button-response","trial_index":54,"time_elapsed":189409,"internal_node_id":"0.0-54.0","participant_id":"AY5OS6NZWVX22"},{"rt":null,"stimulus":"<p style=\"font-size: 48px;\">+</p>","key_press":null,"Name":"fixation","trial_type":"html-keyboard-response","trial_index":55,"time_elapsed":190911,"internal_node_id":"0.0-55.0","participant_id":"AY5OS6NZWVX22"},{"rt":null,"stimulus":"stimuli/22.jpg","button_pressed":null,"name":"noRating","trial_type":"image-button-response","trial_index":56,"time_elapsed":195913,"internal_node_id":"0.0-56.0","participant_id":"AY5OS6NZWVX22"},{"rt":911,"stimulus":"stimuli/22.jpg","button_pressed":"0","name":"valence","trial_type":"image-button-response","trial_index":57,"time_elapsed":196825,"internal_node_id":"0.0-57.0","participant_id":"AY5OS6NZWVX22"},{"rt":2863,"response":"10","name":"rating","trial_type":"image-slider-response","trial_index":58,"time_elapsed":199689,"internal_node_id":"0.0-58.0","participant_id":"AY5OS6NZWVX22"},{"rt":1200,"stimulus":"stimuli/22.jpg","button_pressed":"1","name":"emotionType","trial_type":"image-button-response","trial_index":59,"time_elapsed":200891,"internal_node_id":"0.0-59.0","participant_id":"AY5OS6NZWVX22"},{"rt":4574,"responses":"{\"Q0\":\"sky\"}","trial_type":"survey-text","trial_index":60,"time_elapsed":205466,"internal_node_id":"0.0-60.0-0.0","participant_id":"AY5OS6NZWVX22"},{"rt":null,"stimulus":"<p style=\"font-size: 48px;\">+</p>","key_press":null,"Name":"fixation","trial_type":"html-keyboard-response","trial_index":61,"time_elapsed":206467,"internal_node_id":"0.0-61.0","participant_id":"AY5OS6NZWVX22"},{"rt":null,"stimulus":"stimuli/12.jpg","button_pressed":null,"name":"noRating","trial_type":"image-button-response","trial_index":62,"time_elapsed":211471,"internal_node_id":"0.0-62.0","participant_id":"AY5OS6NZWVX22"},{"rt":1161,"stimulus":"stimuli/12.jpg","button_pressed":"0","name":"valence","trial_type":"image-button-response","trial_index":63,"time_elapsed":212633,"internal_node_id":"0.0-63.0","participant_id":"AY5OS6NZWVX22"},{"rt":3751,"response":"5","name":"rating","trial_type":"image-slider-response","trial_index":64,"time_elapsed":216386,"internal_node_id":"0.0-64.0","participant_id":"AY5OS6NZWVX22"},{"rt":1615,"stimulus":"stimuli/12.jpg","button_pressed":"1","name":"emotionType","trial_type":"image-button-response","trial_index":65,"time_elapsed":218002,"internal_node_id":"0.0-65.0","participant_id":"AY5OS6NZWVX22"},{"rt":null,"stimulus":"<p style=\"font-size: 48px;\">+</p>","key_press":null,"Name":"fixation","trial_type":"html-keyboard-response","trial_index":66,"time_elapsed":218504,"internal_node_id":"0.0-66.0","participant_id":"AY5OS6NZWVX22"},{"rt":null,"stimulus":"stimuli/9.jpg","button_pressed":null,"name":"noRating","trial_type":"image-button-response","trial_index":67,"time_elapsed":223507,"internal_node_id":"0.0-67.0","participant_id":"AY5OS6NZWVX22"},{"rt":1932,"stimulus":"stimuli/9.jpg","button_pressed":"2","name":"valence","trial_type":"image-button-response","trial_index":68,"time_elapsed":225443,"internal_node_id":"0.0-68.0","participant_id":"AY5OS6NZWVX22"},{"rt":2501,"response":"33","name":"rating","trial_type":"image-slider-response","trial_index":69,"time_elapsed":227946,"internal_node_id":"0.0-69.0","participant_id":"AY5OS6NZWVX22"},{"rt":5231,"stimulus":"stimuli/9.jpg","button_pressed":"2","name":"emotionType","trial_type":"image-button-response","trial_index":70,"time_elapsed":233178,"internal_node_id":"0.0-70.0","participant_id":"AY5OS6NZWVX22"},{"rt":null,"stimulus":"<p style=\"font-size: 48px;\">+</p>","key_press":null,"Name":"fixation","trial_type":"html-keyboard-response","trial_index":71,"time_elapsed":234680,"internal_node_id":"0.0-71.0","participant_id":"AY5OS6NZWVX22"},{"rt":null,"stimulus":"stimuli/43.jpg","button_pressed":null,"name":"noRating","trial_type":"image-button-response","trial_index":72,"time_elapsed":239682,"internal_node_id":"0.0-72.0","participant_id":"AY5OS6NZWVX22"},{"rt":1190,"stimulus":"stimuli/43.jpg","button_pressed":"1","name":"valence","trial_type":"image-button-response","trial_index":73,"time_elapsed":240874,"internal_node_id":"0.0-73.0","participant_id":"AY5OS6NZWVX22"},{"rt":2414,"response":"40","name":"rating","trial_type":"image-slider-response","trial_index":74,"time_elapsed":243290,"internal_node_id":"0.0-74.0","participant_id":"AY5OS6NZWVX22"},{"rt":6440,"stimulus":"stimuli/43.jpg","button_pressed":"3","name":"emotionType","trial_type":"image-button-response","trial_index":75,"time_elapsed":249730,"internal_node_id":"0.0-75.0","participant_id":"AY5OS6NZWVX22"},{"rt":null,"stimulus":"<p style=\"font-size: 48px;\">+</p>","key_press":null,"Name":"fixation","trial_type":"html-keyboard-response","trial_index":76,"time_elapsed":251233,"internal_node_id":"0.0-76.0","participant_id":"AY5OS6NZWVX22"},{"rt":null,"stimulus":"stimuli/33.jpg","button_pressed":null,"name":"noRating","trial_type":"image-button-response","trial_index":77,"time_elapsed":256234,"internal_node_id":"0.0-77.0","participant_id":"AY5OS6NZWVX22"},{"rt":1470,"stimulus":"stimuli/33.jpg","button_pressed":"0","name":"valence","trial_type":"image-button-response","trial_index":78,"time_elapsed":257705,"internal_node_id":"0.0-78.0","participant_id":"AY5OS6NZWVX22"},{"rt":2752,"response":"34","name":"rating","trial_type":"image-slider-response","trial_index":79,"time_elapsed":260458,"internal_node_id":"0.0-79.0","participant_id":"AY5OS6NZWVX22"},{"rt":1318,"stimulus":"stimuli/33.jpg","button_pressed":"1","name":"emotionType","trial_type":"image-button-response","trial_index":80,"time_elapsed":261777,"internal_node_id":"0.0-80.0","participant_id":"AY5OS6NZWVX22"},{"rt":null,"stimulus":"<p style=\"font-size: 48px;\">+</p>","key_press":null,"Name":"fixation","trial_type":"html-keyboard-response","trial_index":81,"time_elapsed":262778,"internal_node_id":"0.0-81.0","participant_id":"AY5OS6NZWVX22"},{"rt":null,"stimulus":"stimuli/8.jpg","button_pressed":null,"name":"noRating","trial_type":"image-button-response","trial_index":82,"time_elapsed":267780,"internal_node_id":"0.0-82.0","participant_id":"AY5OS6NZWVX22"},{"rt":1243,"stimulus":"stimuli/8.jpg","button_pressed":"0","name":"valence","trial_type":"image-button-response","trial_index":83,"time_elapsed":269026,"internal_node_id":"0.0-83.0","participant_id":"AY5OS6NZWVX22"},{"rt":2758,"response":"27","name":"rating","trial_type":"image-slider-response","trial_index":84,"time_elapsed":271785,"internal_node_id":"0.0-84.0","participant_id":"AY5OS6NZWVX22"},{"rt":1199,"stimulus":"stimuli/8.jpg","button_pressed":"0","name":"emotionType","trial_type":"image-button-response","trial_index":85,"time_elapsed":272986,"internal_node_id":"0.0-85.0","participant_id":"AY5OS6NZWVX22"},{"rt":4249,"responses":"{\"Q0\":\"our\"}","trial_type":"survey-text","trial_index":86,"time_elapsed":277235,"internal_node_id":"0.0-86.0-0.0","participant_id":"AY5OS6NZWVX22"},{"rt":null,"stimulus":"<p style=\"font-size: 48px;\">+</p>","key_press":null,"Name":"fixation","trial_type":"html-keyboard-response","trial_index":87,"time_elapsed":277737,"internal_node_id":"0.0-87.0","participant_id":"AY5OS6NZWVX22"},{"rt":null,"stimulus":"stimuli/44.jpg","button_pressed":null,"name":"noRating","trial_type":"image-button-response","trial_index":88,"time_elapsed":282739,"internal_node_id":"0.0-88.0","participant_id":"AY5OS6NZWVX22"},{"rt":3997,"stimulus":"stimuli/44.jpg","button_pressed":"2","name":"valence","trial_type":"image-button-response","trial_index":89,"time_elapsed":286738,"internal_node_id":"0.0-89.0","participant_id":"AY5OS6NZWVX22"},{"rt":2543,"response":"18","name":"rating","trial_type":"image-slider-response","trial_index":90,"time_elapsed":289282,"internal_node_id":"0.0-90.0","participant_id":"AY5OS6NZWVX22"},{"rt":1094,"stimulus":"stimuli/44.jpg","button_pressed":"2","name":"emotionType","trial_type":"image-button-response","trial_index":91,"time_elapsed":290378,"internal_node_id":"0.0-91.0","participant_id":"AY5OS6NZWVX22"},{"rt":null,"stimulus":"<p style=\"font-size: 48px;\">+</p>","key_press":null,"Name":"fixation","trial_type":"html-keyboard-response","trial_index":92,"time_elapsed":291879,"internal_node_id":"0.0-92.0","participant_id":"AY5OS6NZWVX22"},{"rt":null,"stimulus":"stimuli/38.jpg","button_pressed":null,"name":"noRating","trial_type":"image-button-response","trial_index":93,"time_elapsed":296882,"internal_node_id":"0.0-93.0","participant_id":"AY5OS6NZWVX22"},{"rt":1334,"stimulus":"stimuli/38.jpg","button_pressed":"0","name":"valence","trial_type":"image-button-response","trial_index":94,"time_elapsed":298218,"internal_node_id":"0.0-94.0","participant_id":"AY5OS6NZWVX22"},{"rt":2190,"response":"37","name":"rating","trial_type":"image-slider-response","trial_index":95,"time_elapsed":300409,"internal_node_id":"0.0-95.0","participant_id":"AY5OS6NZWVX22"},{"rt":911,"stimulus":"stimuli/38.jpg","button_pressed":"2","name":"emotionType","trial_type":"image-button-response","trial_index":96,"time_elapsed":301322,"internal_node_id":"0.0-96.0","participant_id":"AY5OS6NZWVX22"},{"rt":null,"stimulus":"<p style=\"font-size: 48px;\">+</p>","key_press":null,"Name":"fixation","trial_type":"html-keyboard-response","trial_index":97,"time_elapsed":302823,"internal_node_id":"0.0-97.0","participant_id":"AY5OS6NZWVX22"},{"rt":null,"stimulus":"stimuli/42.jpg","button_pressed":null,"name":"noRating","trial_type":"image-button-response","trial_index":98,"time_elapsed":307824,"internal_node_id":"0.0-98.0","participant_id":"AY5OS6NZWVX22"},{"rt":4738,"stimulus":"stimuli/42.jpg","button_pressed":"2","name":"valence","trial_type":"image-button-response","trial_index":99,"time_elapsed":312562,"internal_node_id":"0.0-99.0","participant_id":"AY5OS6NZWVX22"},{"rt":2286,"response":"10","name":"rating","trial_type":"image-slider-response","trial_index":100,"time_elapsed":314850,"internal_node_id":"0.0-100.0","participant_id":"AY5OS6NZWVX22"},{"rt":1328,"stimulus":"stimuli/42.jpg","button_pressed":"2","name":"emotionType","trial_type":"image-button-response","trial_index":101,"time_elapsed":316178,"internal_node_id":"0.0-101.0","participant_id":"AY5OS6NZWVX22"},{"rt":null,"stimulus":"<p style=\"font-size: 48px;\">+</p>","key_press":null,"Name":"fixation","trial_type":"html-keyboard-response","trial_index":102,"time_elapsed":317180,"internal_node_id":"0.0-102.0","participant_id":"AY5OS6NZWVX22"},{"rt":null,"stimulus":"stimuli/14.jpg","button_pressed":null,"name":"noRating","trial_type":"image-button-response","trial_index":103,"time_elapsed":322182,"internal_node_id":"0.0-103.0","participant_id":"AY5OS6NZWVX22"},{"rt":1115,"stimulus":"stimuli/14.jpg","button_pressed":"0","name":"valence","trial_type":"image-button-response","trial_index":104,"time_elapsed":323298,"internal_node_id":"0.0-104.0","participant_id":"AY5OS6NZWVX22"},{"rt":1646,"response":"32","name":"rating","trial_type":"image-slider-response","trial_index":105,"time_elapsed":324946,"internal_node_id":"0.0-105.0","participant_id":"AY5OS6NZWVX22"},{"rt":959,"stimulus":"stimuli/14.jpg","button_pressed":"1","name":"emotionType","trial_type":"image-button-response","trial_index":106,"time_elapsed":325905,"internal_node_id":"0.0-106.0","participant_id":"AY5OS6NZWVX22"},{"rt":null,"stimulus":"<p style=\"font-size: 48px;\">+</p>","key_press":null,"Name":"fixation","trial_type":"html-keyboard-response","trial_index":107,"time_elapsed":327407,"internal_node_id":"0.0-107.0","participant_id":"AY5OS6NZWVX22"},{"rt":null,"stimulus":"stimuli/65.jpg","button_pressed":null,"name":"noRating","trial_type":"image-button-response","trial_index":108,"time_elapsed":332410,"internal_node_id":"0.0-108.0","participant_id":"AY5OS6NZWVX22"},{"rt":935,"stimulus":"stimuli/65.jpg","button_pressed":"0","name":"valence","trial_type":"image-button-response","trial_index":109,"time_elapsed":333346,"internal_node_id":"0.0-109.0","participant_id":"AY5OS6NZWVX22"},{"rt":1910,"response":"26","name":"rating","trial_type":"image-slider-response","trial_index":110,"time_elapsed":335257,"internal_node_id":"0.0-110.0","participant_id":"AY5OS6NZWVX22"},{"rt":1248,"stimulus":"stimuli/65.jpg","button_pressed":"1","name":"emotionType","trial_type":"image-button-response","trial_index":111,"time_elapsed":336506,"internal_node_id":"0.0-111.0","participant_id":"AY5OS6NZWVX22"},{"rt":5558,"responses":"{\"Q0\":\"course\"}","trial_type":"survey-text","trial_index":112,"time_elapsed":342066,"internal_node_id":"0.0-112.0-0.0","participant_id":"AY5OS6NZWVX22"},{"rt":null,"stimulus":"<p style=\"font-size: 48px;\">+</p>","key_press":null,"Name":"fixation","trial_type":"html-keyboard-response","trial_index":113,"time_elapsed":343068,"internal_node_id":"0.0-113.0","participant_id":"AY5OS6NZWVX22"},{"rt":null,"stimulus":"stimuli/3.jpg","button_pressed":null,"name":"noRating","trial_type":"image-button-response","trial_index":114,"time_elapsed":348070,"internal_node_id":"0.0-114.0","participant_id":"AY5OS6NZWVX22"},{"rt":1108,"stimulus":"stimuli/3.jpg","button_pressed":"0","name":"valence","trial_type":"image-button-response","trial_index":115,"time_elapsed":349178,"internal_node_id":"0.0-115.0","participant_id":"AY5OS6NZWVX22"},{"rt":2543,"response":"38","name":"rating","trial_type":"image-slider-response","trial_index":116,"time_elapsed":351722,"internal_node_id":"0.0-116.0","participant_id":"AY5OS6NZWVX22"},{"rt":918,"stimulus":"stimuli/3.jpg","button_pressed":"1","name":"emotionType","trial_type":"image-button-response","trial_index":117,"time_elapsed":352641,"internal_node_id":"0.0-117.0","participant_id":"AY5OS6NZWVX22"},{"rt":null,"stimulus":"<p style=\"font-size: 48px;\">+</p>","key_press":null,"Name":"fixation","trial_type":"html-keyboard-response","trial_index":118,"time_elapsed":353644,"internal_node_id":"0.0-118.0","participant_id":"AY5OS6NZWVX22"},{"rt":null,"stimulus":"stimuli/36.jpg","button_pressed":null,"name":"noRating","trial_type":"image-button-response","trial_index":119,"time_elapsed":358647,"internal_node_id":"0.0-119.0","participant_id":"AY5OS6NZWVX22"},{"rt":1354,"stimulus":"stimuli/36.jpg","button_pressed":"0","name":"valence","trial_type":"image-button-response","trial_index":120,"time_elapsed":360002,"internal_node_id":"0.0-120.0","participant_id":"AY5OS6NZWVX22"},{"rt":2279,"response":"33","name":"rating","trial_type":"image-slider-response","trial_index":121,"time_elapsed":362283,"internal_node_id":"0.0-121.0","participant_id":"AY5OS6NZWVX22"},{"rt":799,"stimulus":"stimuli/36.jpg","button_pressed":"1","name":"emotionType","trial_type":"image-button-response","trial_index":122,"time_elapsed":363083,"internal_node_id":"0.0-122.0","participant_id":"AY5OS6NZWVX22"},{"rt":null,"stimulus":"<p style=\"font-size: 48px;\">+</p>","key_press":null,"Name":"fixation","trial_type":"html-keyboard-response","trial_index":123,"time_elapsed":364584,"internal_node_id":"0.0-123.0","participant_id":"AY5OS6NZWVX22"},{"rt":null,"stimulus":"stimuli/5.jpg","button_pressed":null,"name":"noRating","trial_type":"image-button-response","trial_index":124,"time_elapsed":369586,"internal_node_id":"0.0-124.0","participant_id":"AY5OS6NZWVX22"},{"rt":1054,"stimulus":"stimuli/5.jpg","button_pressed":"0","name":"valence","trial_type":"image-button-response","trial_index":125,"time_elapsed":370641,"internal_node_id":"0.0-125.0","participant_id":"AY5OS6NZWVX22"},{"rt":2376,"response":"31","name":"rating","trial_type":"image-slider-response","trial_index":126,"time_elapsed":373018,"internal_node_id":"0.0-126.0","participant_id":"AY5OS6NZWVX22"},{"rt":878,"stimulus":"stimuli/5.jpg","button_pressed":"1","name":"emotionType","trial_type":"image-button-response","trial_index":127,"time_elapsed":373898,"internal_node_id":"0.0-127.0","participant_id":"AY5OS6NZWVX22"},{"rt":null,"stimulus":"<p style=\"font-size: 48px;\">+</p>","key_press":null,"Name":"fixation","trial_type":"html-keyboard-response","trial_index":128,"time_elapsed":374900,"internal_node_id":"0.0-128.0","participant_id":"AY5OS6NZWVX22"},{"rt":null,"stimulus":"stimuli/70.jpg","button_pressed":null,"name":"noRating","trial_type":"image-button-response","trial_index":129,"time_elapsed":379902,"internal_node_id":"0.0-129.0","participant_id":"AY5OS6NZWVX22"},{"rt":996,"stimulus":"stimuli/70.jpg","button_pressed":"0","name":"valence","trial_type":"image-button-response","trial_index":130,"time_elapsed":380898,"internal_node_id":"0.0-130.0","participant_id":"AY5OS6NZWVX22"},{"rt":1623,"response":"18","name":"rating","trial_type":"image-slider-response","trial_index":131,"time_elapsed":382522,"internal_node_id":"0.0-131.0","participant_id":"AY5OS6NZWVX22"},{"rt":1463,"stimulus":"stimuli/70.jpg","button_pressed":"1","name":"emotionType","trial_type":"image-button-response","trial_index":132,"time_elapsed":383986,"internal_node_id":"0.0-132.0","participant_id":"AY5OS6NZWVX22"},{"rt":null,"stimulus":"<p style=\"font-size: 48px;\">+</p>","key_press":null,"Name":"fixation","trial_type":"html-keyboard-response","trial_index":133,"time_elapsed":384987,"internal_node_id":"0.0-133.0","participant_id":"AY5OS6NZWVX22"},{"rt":null,"stimulus":"stimuli/21.jpg","button_pressed":null,"name":"noRating","trial_type":"image-button-response","trial_index":134,"time_elapsed":389990,"internal_node_id":"0.0-134.0","participant_id":"AY5OS6NZWVX22"},{"rt":923,"stimulus":"stimuli/21.jpg","button_pressed":"0","name":"valence","trial_type":"image-button-response","trial_index":135,"time_elapsed":390914,"internal_node_id":"0.0-135.0","participant_id":"AY5OS6NZWVX22"},{"rt":2216,"response":"37","name":"rating","trial_type":"image-slider-response","trial_index":136,"time_elapsed":393131,"internal_node_id":"0.0-136.0","participant_id":"AY5OS6NZWVX22"},{"rt":2254,"stimulus":"stimuli/21.jpg","button_pressed":"1","name":"emotionType","trial_type":"image-button-response","trial_index":137,"time_elapsed":395386,"internal_node_id":"0.0-137.0","participant_id":"AY5OS6NZWVX22"},{"rt":3559,"responses":"{\"Q0\":\"we\"}","trial_type":"survey-text","trial_index":138,"time_elapsed":398946,"internal_node_id":"0.0-138.0-0.0","participant_id":"AY5OS6NZWVX22"},{"rt":null,"stimulus":"<p style=\"font-size: 48px;\">+</p>","key_press":null,"Name":"fixation","trial_type":"html-keyboard-response","trial_index":139,"time_elapsed":399448,"internal_node_id":"0.0-139.0","participant_id":"AY5OS6NZWVX22"},{"rt":null,"stimulus":"stimuli/59.jpg","button_pressed":null,"name":"noRating","trial_type":"image-button-response","trial_index":140,"time_elapsed":404451,"internal_node_id":"0.0-140.0","participant_id":"AY5OS6NZWVX22"},{"rt":974,"stimulus":"stimuli/59.jpg","button_pressed":"0","name":"valence","trial_type":"image-button-response","trial_index":141,"time_elapsed":405426,"internal_node_id":"0.0-141.0","participant_id":"AY5OS6NZWVX22"},{"rt":2142,"response":"29","name":"rating","trial_type":"image-slider-response","trial_index":142,"time_elapsed":407570,"internal_node_id":"0.0-142.0","participant_id":"AY5OS6NZWVX22"},{"rt":1950,"stimulus":"stimuli/59.jpg","button_pressed":"1","name":"emotionType","trial_type":"image-button-response","trial_index":143,"time_elapsed":409522,"internal_node_id":"0.0-143.0","participant_id":"AY5OS6NZWVX22"},{"rt":null,"stimulus":"<p style=\"font-size: 48px;\">+</p>","key_press":null,"Name":"fixation","trial_type":"html-keyboard-response","trial_index":144,"time_elapsed":411024,"internal_node_id":"0.0-144.0","participant_id":"AY5OS6NZWVX22"},{"rt":null,"stimulus":"stimuli/32.jpg","button_pressed":null,"name":"noRating","trial_type":"image-button-response","trial_index":145,"time_elapsed":416027,"internal_node_id":"0.0-145.0","participant_id":"AY5OS6NZWVX22"},{"rt":1094,"stimulus":"stimuli/32.jpg","button_pressed":"0","name":"valence","trial_type":"image-button-response","trial_index":146,"time_elapsed":417122,"internal_node_id":"0.0-146.0","participant_id":"AY5OS6NZWVX22"},{"rt":1662,"response":"32","name":"rating","trial_type":"image-slider-response","trial_index":147,"time_elapsed":418785,"internal_node_id":"0.0-147.0","participant_id":"AY5OS6NZWVX22"},{"rt":1616,"stimulus":"stimuli/32.jpg","button_pressed":"2","name":"emotionType","trial_type":"image-button-response","trial_index":148,"time_elapsed":420402,"internal_node_id":"0.0-148.0","participant_id":"AY5OS6NZWVX22"},{"rt":null,"stimulus":"<p style=\"font-size: 48px;\">+</p>","key_press":null,"Name":"fixation","trial_type":"html-keyboard-response","trial_index":149,"time_elapsed":420903,"internal_node_id":"0.0-149.0","participant_id":"AY5OS6NZWVX22"},{"rt":null,"stimulus":"stimuli/23.jpg","button_pressed":null,"name":"noRating","trial_type":"image-button-response","trial_index":150,"time_elapsed":425906,"internal_node_id":"0.0-150.0","participant_id":"AY5OS6NZWVX22"},{"rt":2231,"stimulus":"stimuli/23.jpg","button_pressed":"1","name":"valence","trial_type":"image-button-response","trial_index":151,"time_elapsed":428138,"internal_node_id":"0.0-151.0","participant_id":"AY5OS6NZWVX22"},{"rt":2871,"response":"39","name":"rating","trial_type":"image-slider-response","trial_index":152,"time_elapsed":431010,"internal_node_id":"0.0-152.0","participant_id":"AY5OS6NZWVX22"},{"rt":3638,"stimulus":"stimuli/23.jpg","button_pressed":"3","name":"emotionType","trial_type":"image-button-response","trial_index":153,"time_elapsed":434649,"internal_node_id":"0.0-153.0","participant_id":"AY5OS6NZWVX22"},{"rt":null,"stimulus":"<p style=\"font-size: 48px;\">+</p>","key_press":null,"Name":"fixation","trial_type":"html-keyboard-response","trial_index":154,"time_elapsed":435650,"internal_node_id":"0.0-154.0","participant_id":"AY5OS6NZWVX22"},{"rt":null,"stimulus":"stimuli/25.jpg","button_pressed":null,"name":"noRating","trial_type":"image-button-response","trial_index":155,"time_elapsed":440652,"internal_node_id":"0.0-155.0","participant_id":"AY5OS6NZWVX22"},{"rt":925,"stimulus":"stimuli/25.jpg","button_pressed":"0","name":"valence","trial_type":"image-button-response","trial_index":156,"time_elapsed":441579,"internal_node_id":"0.0-156.0","participant_id":"AY5OS6NZWVX22"},{"rt":2638,"response":"16","name":"rating","trial_type":"image-slider-response","trial_index":157,"time_elapsed":444218,"internal_node_id":"0.0-157.0","participant_id":"AY5OS6NZWVX22"},{"rt":2783,"stimulus":"stimuli/25.jpg","button_pressed":"0","name":"emotionType","trial_type":"image-button-response","trial_index":158,"time_elapsed":447002,"internal_node_id":"0.0-158.0","participant_id":"AY5OS6NZWVX22"},{"rt":null,"stimulus":"<p style=\"font-size: 48px;\">+</p>","key_press":null,"Name":"fixation","trial_type":"html-keyboard-response","trial_index":159,"time_elapsed":447504,"internal_node_id":"0.0-159.0","participant_id":"AY5OS6NZWVX22"},{"rt":null,"stimulus":"stimuli/51.jpg","button_pressed":null,"name":"noRating","trial_type":"image-button-response","trial_index":160,"time_elapsed":452507,"internal_node_id":"0.0-160.0","participant_id":"AY5OS6NZWVX22"},{"rt":830,"stimulus":"stimuli/51.jpg","button_pressed":"0","name":"valence","trial_type":"image-button-response","trial_index":161,"time_elapsed":453338,"internal_node_id":"0.0-161.0","participant_id":"AY5OS6NZWVX22"},{"rt":1798,"response":"37","name":"rating","trial_type":"image-slider-response","trial_index":162,"time_elapsed":455138,"internal_node_id":"0.0-162.0","participant_id":"AY5OS6NZWVX22"},{"rt":847,"stimulus":"stimuli/51.jpg","button_pressed":"1","name":"emotionType","trial_type":"image-button-response","trial_index":163,"time_elapsed":455986,"internal_node_id":"0.0-163.0","participant_id":"AY5OS6NZWVX22"},{"rt":2263,"stimulus":"stimuli/ins/Slide8.JPG","button_pressed":"0","trial_type":"image-button-response","trial_index":164,"time_elapsed":458250,"internal_node_id":"0.0-164.0","participant_id":"AY5OS6NZWVX22"}]