[{"rt":26604,"responses":"{\"Q0\":\"AZ5ZYUCAQ0XDL\"}","trial_type":"survey-text","trial_index":0,"time_elapsed":26607,"internal_node_id":"0.0-0.0-0.0","participant_id":"AZ5ZYUCAQ0XDL"},{"rt":9905,"stimulus":"stimuli/ins/Slide1.JPG","button_pressed":"0","Name":"instructions","trial_type":"image-button-response","trial_index":1,"time_elapsed":36515,"internal_node_id":"0.0-1.0","participant_id":"AZ5ZYUCAQ0XDL"},{"rt":1722,"stimulus":"stimuli/ins/Slide2.JPG","button_pressed":"0","Name":"instructions","trial_type":"image-button-response","trial_index":2,"time_elapsed":38238,"internal_node_id":"0.0-2.0","participant_id":"AZ5ZYUCAQ0XDL"},{"rt":661,"stimulus":"stimuli/ins/Slide3.JPG","button_pressed":"0","Name":"instructions","trial_type":"image-button-response","trial_index":3,"time_elapsed":38900,"internal_node_id":"0.0-3.0","participant_id":"AZ5ZYUCAQ0XDL"},{"rt":8880,"stimulus":"stimuli/ins/Slide4.JPG","button_pressed":"0","Name":"instructions","trial_type":"image-button-response","trial_index":4,"time_elapsed":47781,"internal_node_id":"0.0-4.0","participant_id":"AZ5ZYUCAQ0XDL"},{"rt":4553,"stimulus":"stimuli/ins/Slide5.JPG","button_pressed":"0","Name":"instructions","trial_type":"image-button-response","trial_index":5,"time_elapsed":52335,"internal_node_id":"0.0-5.0","participant_id":"AZ5ZYUCAQ0XDL"},{"rt":4214,"stimulus":"stimuli/ins/Slide6.JPG","button_pressed":"0","Name":"instructions","trial_type":"image-button-response","trial_index":6,"time_elapsed":56551,"internal_node_id":"0.0-6.0","participant_id":"AZ5ZYUCAQ0XDL"},{"rt":292160,"stimulus":"stimuli/ins/Slide7.JPG","button_pressed":"0","Name":"instructions","trial_type":"image-button-response","trial_index":7,"time_elapsed":348712,"internal_node_id":"0.0-7.0","participant_id":"AZ5ZYUCAQ0XDL"},{"rt":5845,"responses":"{\"Q0\":\"but\"}","trial_type":"survey-text","trial_index":8,"time_elapsed":354558,"internal_node_id":"0.0-8.0-0.0","participant_id":"AZ5ZYUCAQ0XDL"},{"rt":null,"stimulus":"<p style=\"font-size: 48px;\">+</p>","key_press":null,"Name":"fixation","trial_type":"html-keyboard-response","trial_index":9,"time_elapsed":355068,"internal_node_id":"0.0-9.0","participant_id":"AZ5ZYUCAQ0XDL"},{"rt":null,"stimulus":"stimuli/63.jpg","button_pressed":null,"name":"noRating","trial_type":"image-button-response","trial_index":10,"time_elapsed":360071,"internal_node_id":"0.0-10.0","participant_id":"AZ5ZYUCAQ0XDL"},{"rt":1113,"stimulus":"stimuli/63.jpg","button_pressed":"0","name":"valence","trial_type":"image-button-response","trial_index":11,"time_elapsed":361186,"internal_node_id":"0.0-11.0","participant_id":"AZ5ZYUCAQ0XDL"},{"rt":4486,"response":"80","name":"rating","trial_type":"image-slider-response","trial_index":12,"time_elapsed":365674,"internal_node_id":"0.0-12.0","participant_id":"AZ5ZYUCAQ0XDL"},{"rt":3672,"stimulus":"stimuli/63.jpg","button_pressed":"1","name":"emotionType","trial_type":"image-button-response","trial_index":13,"time_elapsed":369349,"internal_node_id":"0.0-13.0","participant_id":"AZ5ZYUCAQ0XDL"},{"rt":null,"stimulus":"<p style=\"font-size: 48px;\">+</p>","key_press":null,"Name":"fixation","trial_type":"html-keyboard-response","trial_index":14,"time_elapsed":369866,"internal_node_id":"0.0-14.0","participant_id":"AZ5ZYUCAQ0XDL"},{"rt":null,"stimulus":"stimuli/10.jpg","button_pressed":null,"name":"noRating","trial_type":"image-button-response","trial_index":15,"time_elapsed":374869,"internal_node_id":"0.0-15.0","participant_id":"AZ5ZYUCAQ0XDL"},{"rt":1288,"stimulus":"stimuli/10.jpg","button_pressed":"0","name":"valence","trial_type":"image-button-response","trial_index":16,"time_elapsed":376157,"internal_node_id":"0.0-16.0","participant_id":"AZ5ZYUCAQ0XDL"},{"rt":3397,"response":"51","name":"rating","trial_type":"image-slider-response","trial_index":17,"time_elapsed":379557,"internal_node_id":"0.0-17.0","participant_id":"AZ5ZYUCAQ0XDL"},{"rt":4274,"stimulus":"stimuli/10.jpg","button_pressed":"1","name":"emotionType","trial_type":"image-button-response","trial_index":18,"time_elapsed":383834,"internal_node_id":"0.0-18.0","participant_id":"AZ5ZYUCAQ0XDL"},{"rt":null,"stimulus":"<p style=\"font-size: 48px;\">+</p>","key_press":null,"Name":"fixation","trial_type":"html-keyboard-response","trial_index":19,"time_elapsed":385346,"internal_node_id":"0.0-19.0","participant_id":"AZ5ZYUCAQ0XDL"},{"rt":null,"stimulus":"stimuli/69.jpg","button_pressed":null,"name":"noRating","trial_type":"image-button-response","trial_index":20,"time_elapsed":390349,"internal_node_id":"0.0-20.0","participant_id":"AZ5ZYUCAQ0XDL"},{"rt":1695,"stimulus":"stimuli/69.jpg","button_pressed":"0","name":"valence","trial_type":"image-button-response","trial_index":21,"time_elapsed":392046,"internal_node_id":"0.0-21.0","participant_id":"AZ5ZYUCAQ0XDL"},{"rt":5337,"response":"86","name":"rating","trial_type":"image-slider-response","trial_index":22,"time_elapsed":397385,"internal_node_id":"0.0-22.0","participant_id":"AZ5ZYUCAQ0XDL"},{"rt":2382,"stimulus":"stimuli/69.jpg","button_pressed":"0","name":"emotionType","trial_type":"image-button-response","trial_index":23,"time_elapsed":399769,"internal_node_id":"0.0-23.0","participant_id":"AZ5ZYUCAQ0XDL"},{"rt":null,"stimulus":"<p style=\"font-size: 48px;\">+</p>","key_press":null,"Name":"fixation","trial_type":"html-keyboard-response","trial_index":24,"time_elapsed":401285,"internal_node_id":"0.0-24.0","participant_id":"AZ5ZYUCAQ0XDL"},{"rt":null,"stimulus":"stimuli/38.jpg","button_pressed":null,"name":"noRating","trial_type":"image-button-response","trial_index":25,"time_elapsed":406289,"internal_node_id":"0.0-25.0","participant_id":"AZ5ZYUCAQ0XDL"},{"rt":1546,"stimulus":"stimuli/38.jpg","button_pressed":"0","name":"valence","trial_type":"image-button-response","trial_index":26,"time_elapsed":407836,"internal_node_id":"0.0-26.0","participant_id":"AZ5ZYUCAQ0XDL"},{"rt":7911,"response":"52","name":"rating","trial_type":"image-slider-response","trial_index":27,"time_elapsed":415749,"internal_node_id":"0.0-27.0","participant_id":"AZ5ZYUCAQ0XDL"},{"rt":2665,"stimulus":"stimuli/38.jpg","button_pressed":"2","name":"emotionType","trial_type":"image-button-response","trial_index":28,"time_elapsed":418415,"internal_node_id":"0.0-28.0","participant_id":"AZ5ZYUCAQ0XDL"},{"rt":null,"stimulus":"<p style=\"font-size: 48px;\">+</p>","key_press":null,"Name":"fixation","trial_type":"html-keyboard-response","trial_index":29,"time_elapsed":419417,"internal_node_id":"0.0-29.0","participant_id":"AZ5ZYUCAQ0XDL"},{"rt":null,"stimulus":"stimuli/27.jpg","button_pressed":null,"name":"noRating","trial_type":"image-button-response","trial_index":30,"time_elapsed":424430,"internal_node_id":"0.0-30.0","participant_id":"AZ5ZYUCAQ0XDL"},{"rt":1266,"stimulus":"stimuli/27.jpg","button_pressed":"0","name":"valence","trial_type":"image-button-response","trial_index":31,"time_elapsed":425696,"internal_node_id":"0.0-31.0","participant_id":"AZ5ZYUCAQ0XDL"},{"rt":5029,"response":"67","name":"rating","trial_type":"image-slider-response","trial_index":32,"time_elapsed":430727,"internal_node_id":"0.0-32.0","participant_id":"AZ5ZYUCAQ0XDL"},{"rt":1769,"stimulus":"stimuli/27.jpg","button_pressed":"0","name":"emotionType","trial_type":"image-button-response","trial_index":33,"time_elapsed":432498,"internal_node_id":"0.0-33.0","participant_id":"AZ5ZYUCAQ0XDL"},{"rt":3741,"responses":"{\"Q0\":\"rock\"}","trial_type":"survey-text","trial_index":34,"time_elapsed":436240,"internal_node_id":"0.0-34.0-0.0","participant_id":"AZ5ZYUCAQ0XDL"},{"rt":null,"stimulus":"<p style=\"font-size: 48px;\">+</p>","key_press":null,"Name":"fixation","trial_type":"html-keyboard-response","trial_index":35,"time_elapsed":437741,"internal_node_id":"0.0-35.0","participant_id":"AZ5ZYUCAQ0XDL"},{"rt":null,"stimulus":"stimuli/45.jpg","button_pressed":null,"name":"noRating","trial_type":"image-button-response","trial_index":36,"time_elapsed":442990,"internal_node_id":"0.0-36.0","participant_id":"AZ5ZYUCAQ0XDL"},{"rt":31659,"stimulus":"stimuli/45.jpg","button_pressed":"0","name":"valence","trial_type":"image-button-response","trial_index":37,"time_elapsed":474651,"internal_node_id":"0.0-37.0","participant_id":"AZ5ZYUCAQ0XDL"},{"rt":7298,"response":"66","name":"rating","trial_type":"image-slider-response","trial_index":38,"time_elapsed":481951,"internal_node_id":"0.0-38.0","participant_id":"AZ5ZYUCAQ0XDL"},{"rt":2005,"stimulus":"stimuli/45.jpg","button_pressed":"1","name":"emotionType","trial_type":"image-button-response","trial_index":39,"time_elapsed":483958,"internal_node_id":"0.0-39.0","participant_id":"AZ5ZYUCAQ0XDL"},{"rt":null,"stimulus":"<p style=\"font-size: 48px;\">+</p>","key_press":null,"Name":"fixation","trial_type":"html-keyboard-response","trial_index":40,"time_elapsed":485465,"internal_node_id":"0.0-40.0","participant_id":"AZ5ZYUCAQ0XDL"},{"rt":null,"stimulus":"stimuli/12.jpg","button_pressed":null,"name":"noRating","trial_type":"image-button-response","trial_index":41,"time_elapsed":490469,"internal_node_id":"0.0-41.0","participant_id":"AZ5ZYUCAQ0XDL"},{"rt":1291,"stimulus":"stimuli/12.jpg","button_pressed":"0","name":"valence","trial_type":"image-button-response","trial_index":42,"time_elapsed":491760,"internal_node_id":"0.0-42.0","participant_id":"AZ5ZYUCAQ0XDL"},{"rt":3295,"response":"42","name":"rating","trial_type":"image-slider-response","trial_index":43,"time_elapsed":495057,"internal_node_id":"0.0-43.0","participant_id":"AZ5ZYUCAQ0XDL"},{"rt":2513,"stimulus":"stimuli/12.jpg","button_pressed":"0","name":"emotionType","trial_type":"image-button-response","trial_index":44,"time_elapsed":497572,"internal_node_id":"0.0-44.0","participant_id":"AZ5ZYUCAQ0XDL"},{"rt":null,"stimulus":"<p style=\"font-size: 48px;\">+</p>","key_press":null,"Name":"fixation","trial_type":"html-keyboard-response","trial_index":45,"time_elapsed":498087,"internal_node_id":"0.0-45.0","participant_id":"AZ5ZYUCAQ0XDL"},{"rt":null,"stimulus":"stimuli/40.jpg","button_pressed":null,"name":"noRating","trial_type":"image-button-response","trial_index":46,"time_elapsed":503091,"internal_node_id":"0.0-46.0","participant_id":"AZ5ZYUCAQ0XDL"},{"rt":1710,"stimulus":"stimuli/40.jpg","button_pressed":"0","name":"valence","trial_type":"image-button-response","trial_index":47,"time_elapsed":504803,"internal_node_id":"0.0-47.0","participant_id":"AZ5ZYUCAQ0XDL"},{"rt":4315,"response":"32","name":"rating","trial_type":"image-slider-response","trial_index":48,"time_elapsed":509120,"internal_node_id":"0.0-48.0","participant_id":"AZ5ZYUCAQ0XDL"},{"rt":2644,"stimulus":"stimuli/40.jpg","button_pressed":"1","name":"emotionType","trial_type":"image-button-response","trial_index":49,"time_elapsed":511766,"internal_node_id":"0.0-49.0","participant_id":"AZ5ZYUCAQ0XDL"},{"rt":null,"stimulus":"<p style=\"font-size: 48px;\">+</p>","key_press":null,"Name":"fixation","trial_type":"html-keyboard-response","trial_index":50,"time_elapsed":512777,"internal_node_id":"0.0-50.0","participant_id":"AZ5ZYUCAQ0XDL"},{"rt":null,"stimulus":"stimuli/70.jpg","button_pressed":null,"name":"noRating","trial_type":"image-button-response","trial_index":51,"time_elapsed":517790,"internal_node_id":"0.0-51.0","participant_id":"AZ5ZYUCAQ0XDL"},{"rt":1102,"stimulus":"stimuli/70.jpg","button_pressed":"0","name":"valence","trial_type":"image-button-response","trial_index":52,"time_elapsed":518893,"internal_node_id":"0.0-52.0","participant_id":"AZ5ZYUCAQ0XDL"},{"rt":3680,"response":"34","name":"rating","trial_type":"image-slider-response","trial_index":53,"time_elapsed":522574,"internal_node_id":"0.0-53.0","participant_id":"AZ5ZYUCAQ0XDL"},{"rt":1089,"stimulus":"stimuli/70.jpg","button_pressed":"1","name":"emotionType","trial_type":"image-button-response","trial_index":54,"time_elapsed":523665,"internal_node_id":"0.0-54.0","participant_id":"AZ5ZYUCAQ0XDL"},{"rt":null,"stimulus":"<p style=\"font-size: 48px;\">+</p>","key_press":null,"Name":"fixation","trial_type":"html-keyboard-response","trial_index":55,"time_elapsed":524674,"internal_node_id":"0.0-55.0","participant_id":"AZ5ZYUCAQ0XDL"},{"rt":null,"stimulus":"stimuli/49.jpg","button_pressed":null,"name":"noRating","trial_type":"image-button-response","trial_index":56,"time_elapsed":529677,"internal_node_id":"0.0-56.0","participant_id":"AZ5ZYUCAQ0XDL"},{"rt":860,"stimulus":"stimuli/49.jpg","button_pressed":"0","name":"valence","trial_type":"image-button-response","trial_index":57,"time_elapsed":530539,"internal_node_id":"0.0-57.0","participant_id":"AZ5ZYUCAQ0XDL"},{"rt":3277,"response":"76","name":"rating","trial_type":"image-slider-response","trial_index":58,"time_elapsed":533817,"internal_node_id":"0.0-58.0","participant_id":"AZ5ZYUCAQ0XDL"},{"rt":822,"stimulus":"stimuli/49.jpg","button_pressed":"2","name":"emotionType","trial_type":"image-button-response","trial_index":59,"time_elapsed":534640,"internal_node_id":"0.0-59.0","participant_id":"AZ5ZYUCAQ0XDL"},{"rt":3289,"responses":"{\"Q0\":\"sky\"}","trial_type":"survey-text","trial_index":60,"time_elapsed":537931,"internal_node_id":"0.0-60.0-0.0","participant_id":"AZ5ZYUCAQ0XDL"},{"rt":null,"stimulus":"<p style=\"font-size: 48px;\">+</p>","key_press":null,"Name":"fixation","trial_type":"html-keyboard-response","trial_index":61,"time_elapsed":538938,"internal_node_id":"0.0-61.0","participant_id":"AZ5ZYUCAQ0XDL"},{"rt":null,"stimulus":"stimuli/54.jpg","button_pressed":null,"name":"noRating","trial_type":"image-button-response","trial_index":62,"time_elapsed":543942,"internal_node_id":"0.0-62.0","participant_id":"AZ5ZYUCAQ0XDL"},{"rt":1932,"stimulus":"stimuli/54.jpg","button_pressed":"0","name":"valence","trial_type":"image-button-response","trial_index":63,"time_elapsed":545875,"internal_node_id":"0.0-63.0","participant_id":"AZ5ZYUCAQ0XDL"},{"rt":2691,"response":"31","name":"rating","trial_type":"image-slider-response","trial_index":64,"time_elapsed":548567,"internal_node_id":"0.0-64.0","participant_id":"AZ5ZYUCAQ0XDL"},{"rt":833,"stimulus":"stimuli/54.jpg","button_pressed":"2","name":"emotionType","trial_type":"image-button-response","trial_index":65,"time_elapsed":549402,"internal_node_id":"0.0-65.0","participant_id":"AZ5ZYUCAQ0XDL"},{"rt":null,"stimulus":"<p style=\"font-size: 48px;\">+</p>","key_press":null,"Name":"fixation","trial_type":"html-keyboard-response","trial_index":66,"time_elapsed":549911,"internal_node_id":"0.0-66.0","participant_id":"AZ5ZYUCAQ0XDL"},{"rt":null,"stimulus":"stimuli/65.jpg","button_pressed":null,"name":"noRating","trial_type":"image-button-response","trial_index":67,"time_elapsed":554916,"internal_node_id":"0.0-67.0","participant_id":"AZ5ZYUCAQ0XDL"},{"rt":928,"stimulus":"stimuli/65.jpg","button_pressed":"0","name":"valence","trial_type":"image-button-response","trial_index":68,"time_elapsed":555846,"internal_node_id":"0.0-68.0","participant_id":"AZ5ZYUCAQ0XDL"},{"rt":3510,"response":"43","name":"rating","trial_type":"image-slider-response","trial_index":69,"time_elapsed":559358,"internal_node_id":"0.0-69.0","participant_id":"AZ5ZYUCAQ0XDL"},{"rt":754,"stimulus":"stimuli/65.jpg","button_pressed":"1","name":"emotionType","trial_type":"image-button-response","trial_index":70,"time_elapsed":560112,"internal_node_id":"0.0-70.0","participant_id":"AZ5ZYUCAQ0XDL"},{"rt":null,"stimulus":"<p style=\"font-size: 48px;\">+</p>","key_press":null,"Name":"fixation","trial_type":"html-keyboard-response","trial_index":71,"time_elapsed":561125,"internal_node_id":"0.0-71.0","participant_id":"AZ5ZYUCAQ0XDL"},{"rt":null,"stimulus":"stimuli/57.jpg","button_pressed":null,"name":"noRating","trial_type":"image-button-response","trial_index":72,"time_elapsed":566127,"internal_node_id":"0.0-72.0","participant_id":"AZ5ZYUCAQ0XDL"},{"rt":1982,"stimulus":"stimuli/57.jpg","button_pressed":"2","name":"valence","trial_type":"image-button-response","trial_index":73,"time_elapsed":568110,"internal_node_id":"0.0-73.0","participant_id":"AZ5ZYUCAQ0XDL"},{"rt":2947,"response":"68","name":"rating","trial_type":"image-slider-response","trial_index":74,"time_elapsed":571058,"internal_node_id":"0.0-74.0","participant_id":"AZ5ZYUCAQ0XDL"},{"rt":3080,"stimulus":"stimuli/57.jpg","button_pressed":"2","name":"emotionType","trial_type":"image-button-response","trial_index":75,"time_elapsed":574139,"internal_node_id":"0.0-75.0","participant_id":"AZ5ZYUCAQ0XDL"},{"rt":null,"stimulus":"<p style=\"font-size: 48px;\">+</p>","key_press":null,"Name":"fixation","trial_type":"html-keyboard-response","trial_index":76,"time_elapsed":575157,"internal_node_id":"0.0-76.0","participant_id":"AZ5ZYUCAQ0XDL"},{"rt":null,"stimulus":"stimuli/17.jpg","button_pressed":null,"name":"noRating","trial_type":"image-button-response","trial_index":77,"time_elapsed":580987,"internal_node_id":"0.0-77.0","participant_id":"AZ5ZYUCAQ0XDL"},{"rt":4000,"stimulus":"stimuli/17.jpg","button_pressed":"0","name":"valence","trial_type":"image-button-response","trial_index":78,"time_elapsed":584988,"internal_node_id":"0.0-78.0","participant_id":"AZ5ZYUCAQ0XDL"},{"rt":3139,"response":"29","name":"rating","trial_type":"image-slider-response","trial_index":79,"time_elapsed":588130,"internal_node_id":"0.0-79.0","participant_id":"AZ5ZYUCAQ0XDL"},{"rt":743,"stimulus":"stimuli/17.jpg","button_pressed":"1","name":"emotionType","trial_type":"image-button-response","trial_index":80,"time_elapsed":588875,"internal_node_id":"0.0-80.0","participant_id":"AZ5ZYUCAQ0XDL"},{"rt":null,"stimulus":"<p style=\"font-size: 48px;\">+</p>","key_press":null,"Name":"fixation","trial_type":"html-keyboard-response","trial_index":81,"time_elapsed":590389,"internal_node_id":"0.0-81.0","participant_id":"AZ5ZYUCAQ0XDL"},{"rt":null,"stimulus":"stimuli/33.jpg","button_pressed":null,"name":"noRating","trial_type":"image-button-response","trial_index":82,"time_elapsed":595393,"internal_node_id":"0.0-82.0","participant_id":"AZ5ZYUCAQ0XDL"},{"rt":1309,"stimulus":"stimuli/33.jpg","button_pressed":"0","name":"valence","trial_type":"image-button-response","trial_index":83,"time_elapsed":596703,"internal_node_id":"0.0-83.0","participant_id":"AZ5ZYUCAQ0XDL"},{"rt":2674,"response":"18","name":"rating","trial_type":"image-slider-response","trial_index":84,"time_elapsed":599378,"internal_node_id":"0.0-84.0","participant_id":"AZ5ZYUCAQ0XDL"},{"rt":924,"stimulus":"stimuli/33.jpg","button_pressed":"2","name":"emotionType","trial_type":"image-button-response","trial_index":85,"time_elapsed":600303,"internal_node_id":"0.0-85.0","participant_id":"AZ5ZYUCAQ0XDL"},{"rt":3102,"responses":"{\"Q0\":\"our\"}","trial_type":"survey-text","trial_index":86,"time_elapsed":603407,"internal_node_id":"0.0-86.0-0.0","participant_id":"AZ5ZYUCAQ0XDL"},{"rt":null,"stimulus":"<p style=\"font-size: 48px;\">+</p>","key_press":null,"Name":"fixation","trial_type":"html-keyboard-response","trial_index":87,"time_elapsed":604919,"internal_node_id":"0.0-87.0","participant_id":"AZ5ZYUCAQ0XDL"},{"rt":null,"stimulus":"stimuli/3.jpg","button_pressed":null,"name":"noRating","trial_type":"image-button-response","trial_index":88,"time_elapsed":609932,"internal_node_id":"0.0-88.0","participant_id":"AZ5ZYUCAQ0XDL"},{"rt":676,"stimulus":"stimuli/3.jpg","button_pressed":"0","name":"valence","trial_type":"image-button-response","trial_index":89,"time_elapsed":610610,"internal_node_id":"0.0-89.0","participant_id":"AZ5ZYUCAQ0XDL"},{"rt":3261,"response":"65","name":"rating","trial_type":"image-slider-response","trial_index":90,"time_elapsed":613872,"internal_node_id":"0.0-90.0","participant_id":"AZ5ZYUCAQ0XDL"},{"rt":1341,"stimulus":"stimuli/3.jpg","button_pressed":"0","name":"emotionType","trial_type":"image-button-response","trial_index":91,"time_elapsed":615215,"internal_node_id":"0.0-91.0","participant_id":"AZ5ZYUCAQ0XDL"},{"rt":null,"stimulus":"<p style=\"font-size: 48px;\">+</p>","key_press":null,"Name":"fixation","trial_type":"html-keyboard-response","trial_index":92,"time_elapsed":616225,"internal_node_id":"0.0-92.0","participant_id":"AZ5ZYUCAQ0XDL"},{"rt":null,"stimulus":"stimuli/48.jpg","button_pressed":null,"name":"noRating","trial_type":"image-button-response","trial_index":93,"time_elapsed":621227,"internal_node_id":"0.0-93.0","participant_id":"AZ5ZYUCAQ0XDL"},{"rt":1256,"stimulus":"stimuli/48.jpg","button_pressed":"0","name":"valence","trial_type":"image-button-response","trial_index":94,"time_elapsed":622484,"internal_node_id":"0.0-94.0","participant_id":"AZ5ZYUCAQ0XDL"},{"rt":2697,"response":"68","name":"rating","trial_type":"image-slider-response","trial_index":95,"time_elapsed":625182,"internal_node_id":"0.0-95.0","participant_id":"AZ5ZYUCAQ0XDL"},{"rt":619,"stimulus":"stimuli/48.jpg","button_pressed":"1","name":"emotionType","trial_type":"image-button-response","trial_index":96,"time_elapsed":625802,"internal_node_id":"0.0-96.0","participant_id":"AZ5ZYUCAQ0XDL"},{"rt":null,"stimulus":"<p style=\"font-size: 48px;\">+</p>","key_press":null,"Name":"fixation","trial_type":"html-keyboard-response","trial_index":97,"time_elapsed":627304,"internal_node_id":"0.0-97.0","participant_id":"AZ5ZYUCAQ0XDL"},{"rt":null,"stimulus":"stimuli/14.jpg","button_pressed":null,"name":"noRating","trial_type":"image-button-response","trial_index":98,"time_elapsed":632305,"internal_node_id":"0.0-98.0","participant_id":"AZ5ZYUCAQ0XDL"},{"rt":1274,"stimulus":"stimuli/14.jpg","button_pressed":"0","name":"valence","trial_type":"image-button-response","trial_index":99,"time_elapsed":633580,"internal_node_id":"0.0-99.0","participant_id":"AZ5ZYUCAQ0XDL"},{"rt":3671,"response":"35","name":"rating","trial_type":"image-slider-response","trial_index":100,"time_elapsed":637254,"internal_node_id":"0.0-100.0","participant_id":"AZ5ZYUCAQ0XDL"},{"rt":774,"stimulus":"stimuli/14.jpg","button_pressed":"1","name":"emotionType","trial_type":"image-button-response","trial_index":101,"time_elapsed":638028,"internal_node_id":"0.0-101.0","participant_id":"AZ5ZYUCAQ0XDL"},{"rt":null,"stimulus":"<p style=\"font-size: 48px;\">+</p>","key_press":null,"Name":"fixation","trial_type":"html-keyboard-response","trial_index":102,"time_elapsed":639032,"internal_node_id":"0.0-102.0","participant_id":"AZ5ZYUCAQ0XDL"},{"rt":null,"stimulus":"stimuli/30.jpg","button_pressed":null,"name":"noRating","trial_type":"image-button-response","trial_index":103,"time_elapsed":644033,"internal_node_id":"0.0-103.0","participant_id":"AZ5ZYUCAQ0XDL"},{"rt":711,"stimulus":"stimuli/30.jpg","button_pressed":"0","name":"valence","trial_type":"image-button-response","trial_index":104,"time_elapsed":644745,"internal_node_id":"0.0-104.0","participant_id":"AZ5ZYUCAQ0XDL"},{"rt":2877,"response":"45","name":"rating","trial_type":"image-slider-response","trial_index":105,"time_elapsed":647623,"internal_node_id":"0.0-105.0","participant_id":"AZ5ZYUCAQ0XDL"},{"rt":909,"stimulus":"stimuli/30.jpg","button_pressed":"2","name":"emotionType","trial_type":"image-button-response","trial_index":106,"time_elapsed":648535,"internal_node_id":"0.0-106.0","participant_id":"AZ5ZYUCAQ0XDL"},{"rt":null,"stimulus":"<p style=\"font-size: 48px;\">+</p>","key_press":null,"Name":"fixation","trial_type":"html-keyboard-response","trial_index":107,"time_elapsed":649038,"internal_node_id":"0.0-107.0","participant_id":"AZ5ZYUCAQ0XDL"},{"rt":null,"stimulus":"stimuli/11.jpg","button_pressed":null,"name":"noRating","trial_type":"image-button-response","trial_index":108,"time_elapsed":654047,"internal_node_id":"0.0-108.0","participant_id":"AZ5ZYUCAQ0XDL"},{"rt":829,"stimulus":"stimuli/11.jpg","button_pressed":"0","name":"valence","trial_type":"image-button-response","trial_index":109,"time_elapsed":654878,"internal_node_id":"0.0-109.0","participant_id":"AZ5ZYUCAQ0XDL"},{"rt":2748,"response":"73","name":"rating","trial_type":"image-slider-response","trial_index":110,"time_elapsed":657628,"internal_node_id":"0.0-110.0","participant_id":"AZ5ZYUCAQ0XDL"},{"rt":648,"stimulus":"stimuli/11.jpg","button_pressed":"0","name":"emotionType","trial_type":"image-button-response","trial_index":111,"time_elapsed":658278,"internal_node_id":"0.0-111.0","participant_id":"AZ5ZYUCAQ0XDL"},{"rt":4111,"responses":"{\"Q0\":\"course\"}","trial_type":"survey-text","trial_index":112,"time_elapsed":662391,"internal_node_id":"0.0-112.0-0.0","participant_id":"AZ5ZYUCAQ0XDL"},{"rt":null,"stimulus":"<p style=\"font-size: 48px;\">+</p>","key_press":null,"Name":"fixation","trial_type":"html-keyboard-response","trial_index":113,"time_elapsed":663407,"internal_node_id":"0.0-113.0","participant_id":"AZ5ZYUCAQ0XDL"},{"rt":null,"stimulus":"stimuli/7.jpg","button_pressed":null,"name":"noRating","trial_type":"image-button-response","trial_index":114,"time_elapsed":668415,"internal_node_id":"0.0-114.0","participant_id":"AZ5ZYUCAQ0XDL"},{"rt":1011,"stimulus":"stimuli/7.jpg","button_pressed":"0","name":"valence","trial_type":"image-button-response","trial_index":115,"time_elapsed":669428,"internal_node_id":"0.0-115.0","participant_id":"AZ5ZYUCAQ0XDL"},{"rt":2572,"response":"45","name":"rating","trial_type":"image-slider-response","trial_index":116,"time_elapsed":672000,"internal_node_id":"0.0-116.0","participant_id":"AZ5ZYUCAQ0XDL"},{"rt":1146,"stimulus":"stimuli/7.jpg","button_pressed":"0","name":"emotionType","trial_type":"image-button-response","trial_index":117,"time_elapsed":673148,"internal_node_id":"0.0-117.0","participant_id":"AZ5ZYUCAQ0XDL"},{"rt":null,"stimulus":"<p style=\"font-size: 48px;\">+</p>","key_press":null,"Name":"fixation","trial_type":"html-keyboard-response","trial_index":118,"time_elapsed":673650,"internal_node_id":"0.0-118.0","participant_id":"AZ5ZYUCAQ0XDL"},{"rt":null,"stimulus":"stimuli/13.jpg","button_pressed":null,"name":"noRating","trial_type":"image-button-response","trial_index":119,"time_elapsed":678652,"internal_node_id":"0.0-119.0","participant_id":"AZ5ZYUCAQ0XDL"},{"rt":2099,"stimulus":"stimuli/13.jpg","button_pressed":"0","name":"valence","trial_type":"image-button-response","trial_index":120,"time_elapsed":680751,"internal_node_id":"0.0-120.0","participant_id":"AZ5ZYUCAQ0XDL"},{"rt":3498,"response":"48","name":"rating","trial_type":"image-slider-response","trial_index":121,"time_elapsed":684251,"internal_node_id":"0.0-121.0","participant_id":"AZ5ZYUCAQ0XDL"},{"rt":724,"stimulus":"stimuli/13.jpg","button_pressed":"1","name":"emotionType","trial_type":"image-button-response","trial_index":122,"time_elapsed":684976,"internal_node_id":"0.0-122.0","participant_id":"AZ5ZYUCAQ0XDL"},{"rt":null,"stimulus":"<p style=\"font-size: 48px;\">+</p>","key_press":null,"Name":"fixation","trial_type":"html-keyboard-response","trial_index":123,"time_elapsed":685481,"internal_node_id":"0.0-123.0","participant_id":"AZ5ZYUCAQ0XDL"},{"rt":null,"stimulus":"stimuli/31.jpg","button_pressed":null,"name":"noRating","trial_type":"image-button-response","trial_index":124,"time_elapsed":690483,"internal_node_id":"0.0-124.0","participant_id":"AZ5ZYUCAQ0XDL"},{"rt":1267,"stimulus":"stimuli/31.jpg","button_pressed":"0","name":"valence","trial_type":"image-button-response","trial_index":125,"time_elapsed":691751,"internal_node_id":"0.0-125.0","participant_id":"AZ5ZYUCAQ0XDL"},{"rt":3966,"response":"71","name":"rating","trial_type":"image-slider-response","trial_index":126,"time_elapsed":695718,"internal_node_id":"0.0-126.0","participant_id":"AZ5ZYUCAQ0XDL"},{"rt":847,"stimulus":"stimuli/31.jpg","button_pressed":"1","name":"emotionType","trial_type":"image-button-response","trial_index":127,"time_elapsed":696567,"internal_node_id":"0.0-127.0","participant_id":"AZ5ZYUCAQ0XDL"},{"rt":null,"stimulus":"<p style=\"font-size: 48px;\">+</p>","key_press":null,"Name":"fixation","trial_type":"html-keyboard-response","trial_index":128,"time_elapsed":697079,"internal_node_id":"0.0-128.0","participant_id":"AZ5ZYUCAQ0XDL"},{"rt":null,"stimulus":"stimuli/53.jpg","button_pressed":null,"name":"noRating","trial_type":"image-button-response","trial_index":129,"time_elapsed":702081,"internal_node_id":"0.0-129.0","participant_id":"AZ5ZYUCAQ0XDL"},{"rt":2070,"stimulus":"stimuli/53.jpg","button_pressed":"0","name":"valence","trial_type":"image-button-response","trial_index":130,"time_elapsed":704152,"internal_node_id":"0.0-130.0","participant_id":"AZ5ZYUCAQ0XDL"},{"rt":2279,"response":"27","name":"rating","trial_type":"image-slider-response","trial_index":131,"time_elapsed":706432,"internal_node_id":"0.0-131.0","participant_id":"AZ5ZYUCAQ0XDL"},{"rt":1522,"stimulus":"stimuli/53.jpg","button_pressed":"1","name":"emotionType","trial_type":"image-button-response","trial_index":132,"time_elapsed":707956,"internal_node_id":"0.0-132.0","participant_id":"AZ5ZYUCAQ0XDL"},{"rt":null,"stimulus":"<p style=\"font-size: 48px;\">+</p>","key_press":null,"Name":"fixation","trial_type":"html-keyboard-response","trial_index":133,"time_elapsed":708967,"internal_node_id":"0.0-133.0","participant_id":"AZ5ZYUCAQ0XDL"},{"rt":null,"stimulus":"stimuli/36.jpg","button_pressed":null,"name":"noRating","trial_type":"image-button-response","trial_index":134,"time_elapsed":713969,"internal_node_id":"0.0-134.0","participant_id":"AZ5ZYUCAQ0XDL"},{"rt":1027,"stimulus":"stimuli/36.jpg","button_pressed":"2","name":"valence","trial_type":"image-button-response","trial_index":135,"time_elapsed":714998,"internal_node_id":"0.0-135.0","participant_id":"AZ5ZYUCAQ0XDL"},{"rt":1933,"response":"69","name":"rating","trial_type":"image-slider-response","trial_index":136,"time_elapsed":716932,"internal_node_id":"0.0-136.0","participant_id":"AZ5ZYUCAQ0XDL"},{"rt":1474,"stimulus":"stimuli/36.jpg","button_pressed":"2","name":"emotionType","trial_type":"image-button-response","trial_index":137,"time_elapsed":718408,"internal_node_id":"0.0-137.0","participant_id":"AZ5ZYUCAQ0XDL"},{"rt":3263,"responses":"{\"Q0\":\"we\"}","trial_type":"survey-text","trial_index":138,"time_elapsed":721671,"internal_node_id":"0.0-138.0-0.0","participant_id":"AZ5ZYUCAQ0XDL"},{"rt":null,"stimulus":"<p style=\"font-size: 48px;\">+</p>","key_press":null,"Name":"fixation","trial_type":"html-keyboard-response","trial_index":139,"time_elapsed":723179,"internal_node_id":"0.0-139.0","participant_id":"AZ5ZYUCAQ0XDL"},{"rt":null,"stimulus":"stimuli/4.jpg","button_pressed":null,"name":"noRating","trial_type":"image-button-response","trial_index":140,"time_elapsed":728181,"internal_node_id":"0.0-140.0","participant_id":"AZ5ZYUCAQ0XDL"},{"rt":1070,"stimulus":"stimuli/4.jpg","button_pressed":"0","name":"valence","trial_type":"image-button-response","trial_index":141,"time_elapsed":729252,"internal_node_id":"0.0-141.0","participant_id":"AZ5ZYUCAQ0XDL"},{"rt":2477,"response":"18","name":"rating","trial_type":"image-slider-response","trial_index":142,"time_elapsed":731732,"internal_node_id":"0.0-142.0","participant_id":"AZ5ZYUCAQ0XDL"},{"rt":912,"stimulus":"stimuli/4.jpg","button_pressed":"0","name":"emotionType","trial_type":"image-button-response","trial_index":143,"time_elapsed":732647,"internal_node_id":"0.0-143.0","participant_id":"AZ5ZYUCAQ0XDL"},{"rt":null,"stimulus":"<p style=\"font-size: 48px;\">+</p>","key_press":null,"Name":"fixation","trial_type":"html-keyboard-response","trial_index":144,"time_elapsed":733155,"internal_node_id":"0.0-144.0","participant_id":"AZ5ZYUCAQ0XDL"},{"rt":null,"stimulus":"stimuli/32.jpg","button_pressed":null,"name":"noRating","trial_type":"image-button-response","trial_index":145,"time_elapsed":738157,"internal_node_id":"0.0-145.0","participant_id":"AZ5ZYUCAQ0XDL"},{"rt":2049,"stimulus":"stimuli/32.jpg","button_pressed":"0","name":"valence","trial_type":"image-button-response","trial_index":146,"time_elapsed":740207,"internal_node_id":"0.0-146.0","participant_id":"AZ5ZYUCAQ0XDL"},{"rt":2257,"response":"47","name":"rating","trial_type":"image-slider-response","trial_index":147,"time_elapsed":742466,"internal_node_id":"0.0-147.0","participant_id":"AZ5ZYUCAQ0XDL"},{"rt":795,"stimulus":"stimuli/32.jpg","button_pressed":"0","name":"emotionType","trial_type":"image-button-response","trial_index":148,"time_elapsed":743263,"internal_node_id":"0.0-148.0","participant_id":"AZ5ZYUCAQ0XDL"},{"rt":null,"stimulus":"<p style=\"font-size: 48px;\">+</p>","key_press":null,"Name":"fixation","trial_type":"html-keyboard-response","trial_index":149,"time_elapsed":743766,"internal_node_id":"0.0-149.0","participant_id":"AZ5ZYUCAQ0XDL"},{"rt":null,"stimulus":"stimuli/16.jpg","button_pressed":null,"name":"noRating","trial_type":"image-button-response","trial_index":150,"time_elapsed":748768,"internal_node_id":"0.0-150.0","participant_id":"AZ5ZYUCAQ0XDL"},{"rt":1373,"stimulus":"stimuli/16.jpg","button_pressed":"0","name":"valence","trial_type":"image-button-response","trial_index":151,"time_elapsed":750141,"internal_node_id":"0.0-151.0","participant_id":"AZ5ZYUCAQ0XDL"},{"rt":2736,"response":"27","name":"rating","trial_type":"image-slider-response","trial_index":152,"time_elapsed":752879,"internal_node_id":"0.0-152.0","participant_id":"AZ5ZYUCAQ0XDL"},{"rt":993,"stimulus":"stimuli/16.jpg","button_pressed":"1","name":"emotionType","trial_type":"image-button-response","trial_index":153,"time_elapsed":753874,"internal_node_id":"0.0-153.0","participant_id":"AZ5ZYUCAQ0XDL"},{"rt":null,"stimulus":"<p style=\"font-size: 48px;\">+</p>","key_press":null,"Name":"fixation","trial_type":"html-keyboard-response","trial_index":154,"time_elapsed":755389,"internal_node_id":"0.0-154.0","participant_id":"AZ5ZYUCAQ0XDL"},{"rt":null,"stimulus":"stimuli/43.jpg","button_pressed":null,"name":"noRating","trial_type":"image-button-response","trial_index":155,"time_elapsed":760392,"internal_node_id":"0.0-155.0","participant_id":"AZ5ZYUCAQ0XDL"},{"rt":2251,"stimulus":"stimuli/43.jpg","button_pressed":"2","name":"valence","trial_type":"image-button-response","trial_index":156,"time_elapsed":762644,"internal_node_id":"0.0-156.0","participant_id":"AZ5ZYUCAQ0XDL"},{"rt":4171,"response":"73","name":"rating","trial_type":"image-slider-response","trial_index":157,"time_elapsed":766816,"internal_node_id":"0.0-157.0","participant_id":"AZ5ZYUCAQ0XDL"},{"rt":3315,"stimulus":"stimuli/43.jpg","button_pressed":"1","name":"emotionType","trial_type":"image-button-response","trial_index":158,"time_elapsed":770132,"internal_node_id":"0.0-158.0","participant_id":"AZ5ZYUCAQ0XDL"},{"rt":null,"stimulus":"<p style=\"font-size: 48px;\">+</p>","key_press":null,"Name":"fixation","trial_type":"html-keyboard-response","trial_index":159,"time_elapsed":771647,"internal_node_id":"0.0-159.0","participant_id":"AZ5ZYUCAQ0XDL"},{"rt":null,"stimulus":"stimuli/18.jpg","button_pressed":null,"name":"noRating","trial_type":"image-button-response","trial_index":160,"time_elapsed":776657,"internal_node_id":"0.0-160.0","participant_id":"AZ5ZYUCAQ0XDL"},{"rt":2349,"stimulus":"stimuli/18.jpg","button_pressed":"0","name":"valence","trial_type":"image-button-response","trial_index":161,"time_elapsed":779008,"internal_node_id":"0.0-161.0","participant_id":"AZ5ZYUCAQ0XDL"},{"rt":3485,"response":"12","name":"rating","trial_type":"image-slider-response","trial_index":162,"time_elapsed":782494,"internal_node_id":"0.0-162.0","participant_id":"AZ5ZYUCAQ0XDL"},{"rt":1276,"stimulus":"stimuli/18.jpg","button_pressed":"1","name":"emotionType","trial_type":"image-button-response","trial_index":163,"time_elapsed":783772,"internal_node_id":"0.0-163.0","participant_id":"AZ5ZYUCAQ0XDL"},{"rt":2505,"stimulus":"stimuli/ins/Slide8.JPG","button_pressed":"0","trial_type":"image-button-response","trial_index":164,"time_elapsed":786278,"internal_node_id":"0.0-164.0","participant_id":"AZ5ZYUCAQ0XDL"}]